build,computer.platform,date,time,subject,group,session,blockcode,blocknum,trialcode,trialnum,counttrials,dotposition,stimulusitem1,response,correct,latency,trialdotlatency,score
6.6.1,win,2022-07-30,20:44:16,1,1,1,level1,2,freebird1,1,1,1,birdincage2.png,box1,0,1052,5000,0
6.6.1,win,2022-07-30,20:44:16,1,1,1,level1,2,freebird1,3,2,5,birdincage2.png,box5,1,1014,5500,1
6.6.1,win,2022-07-30,20:44:16,1,1,1,level1,2,freebird1,5,3,1,birdincage2.png,box1,0,700,5000,1
6.6.1,win,2022-07-30,20:44:16,1,1,1,level1,2,freebird1,7,4,7,birdincage2.png,box7,1,1012,5500,2
6.6.1,win,2022-07-30,20:44:16,1,1,1,level1,2,freebird1,9,5,9,birdincage2.png,box9,1,508,5000,3
6.6.1,win,2022-07-30,20:44:16,1,1,1,level1,2,freebird1,11,6,6,birdincage2.png,box6,1,585,4500,4
6.6.1,win,2022-07-30,20:44:16,1,1,1,level1,2,freebird1,13,7,1,birdincage2.png,box1,0,495,4000,4
6.6.1,win,2022-07-30,20:44:16,1,1,1,level1,2,freebird1,15,8,10,birdincage2.png,box10,1,455,4500,5
6.6.1,win,2022-07-30,20:44:16,1,1,1,level1,2,freebird1,17,9,2,birdincage2.png,box2,1,507,4000,6
6.6.1,win,2022-07-30,20:44:16,1,1,1,level1,2,freebird1,19,10,4,birdincage2.png,box4,1,681,3500,7
6.6.1,win,2022-07-30,20:44:16,1,1,1,level1,2,freebird1,21,11,10,birdincage2.png,box10,1,538,3000,8
6.6.1,win,2022-07-30,20:44:16,1,1,1,level1,2,freebird1,23,12,5,birdincage2.png,box5,1,583,2500,9
6.6.1,win,2022-07-30,20:44:16,1,1,1,level1,2,freebird1,25,13,7,birdincage2.png,box7,1,731,2000,10
6.6.1,win,2022-07-30,20:44:16,1,1,1,level1,2,freebird1,27,14,2,birdincage2.png,box2,1,612,1500,11
6.6.1,win,2022-07-30,20:44:16,1,1,1,level1,2,freebird1,29,15,7,birdincage2.png,box7,1,648,1000,12
6.6.1,win,2022-07-30,20:44:16,1,1,1,level1,2,freebird1,31,16,9,birdincage2.png,box9,1,470,500,13
6.6.1,win,2022-07-30,20:44:16,1,1,1,level1,2,freebird1,33,17,1,birdincage2.png,0,0,0,0,13
6.6.1,win,2022-07-30,20:44:16,1,1,1,level1,2,freebird1,35,18,4,birdincage2.png,0,0,500,500,13
6.6.1,win,2022-07-30,20:44:16,1,1,1,level1,2,freebird1,37,19,5,birdincage2.png,box5,1,673,1000,14
6.6.1,win,2022-07-30,20:44:16,1,1,1,level1,2,freebird1,39,20,2,birdincage2.png,0,0,500,500,14
6.6.1,win,2022-07-30,20:44:16,1,1,1,level1,2,freebird1,41,21,5,birdincage2.png,box2,0,12,1000,14
6.6.1,win,2022-07-30,20:44:16,1,1,1,level1,2,freebird1,43,22,10,birdincage2.png,box10,1,776,1500,15
6.6.1,win,2022-07-30,20:44:16,1,1,1,level1,2,freebird1,45,23,5,birdincage2.png,box5,1,825,1000,16
6.6.1,win,2022-07-30,20:44:16,1,1,1,level1,2,freebird1,47,24,4,birdincage2.png,0,0,500,500,16
6.6.1,win,2022-07-30,20:44:16,1,1,1,level1,2,freebird1,49,25,5,birdincage2.png,box4,0,37,1000,16
6.6.1,win,2022-07-30,20:44:16,1,1,1,level1,2,freebird1,51,26,6,birdincage2.png,box6,1,497,1500,17
6.6.1,win,2022-07-30,20:44:16,1,1,1,level1,2,freebird1,53,27,10,birdincage2.png,box10,1,418,1000,18
6.6.1,win,2022-07-30,20:44:16,1,1,1,level1,2,freebird1,55,28,4,birdincage2.png,box4,1,441,500,19
6.6.1,win,2022-07-30,20:44:16,1,1,1,level1,2,freebird1,57,29,9,birdincage2.png,0,0,0,0,19
6.6.1,win,2022-07-30,20:44:16,1,1,1,level1,2,freebird1,59,30,5,birdincage2.png,0,0,500,500,19
6.6.1,win,2022-07-30,20:44:16,1,1,1,level1,2,freebird1,61,31,10,birdincage2.png,box10,1,892,1000,20
6.6.1,win,2022-07-30,20:44:16,1,1,1,level1,2,freebird1,63,32,5,birdincage2.png,box5,1,497,500,21
6.6.1,win,2022-07-30,20:44:16,1,1,1,level1,2,freebird1,65,33,4,birdincage2.png,0,0,0,0,21
6.6.1,win,2022-07-30,20:44:16,1,1,1,level1,2,freebird1,67,34,2,birdincage2.png,0,0,500,500,21
6.6.1,win,2022-07-30,20:44:16,1,1,1,level1,2,freebird1,69,35,3,birdincage2.png,box3,1,569,1000,22
6.6.1,win,2022-07-30,20:44:16,1,1,1,level1,2,freebird1,71,36,5,birdincage2.png,box5,1,472,500,23
6.6.1,win,2022-07-30,20:44:16,1,1,1,level1,2,freebird1,73,37,8,birdincage2.png,0,0,0,0,23
6.6.1,win,2022-07-30,20:44:16,1,1,1,level1,2,freebird1,75,38,5,birdincage2.png,0,0,500,500,23
6.6.1,win,2022-07-30,20:44:16,1,1,1,level1,2,freebird1,77,39,2,birdincage2.png,box5,0,35,1000,23
6.6.1,win,2022-07-30,20:44:16,1,1,1,level1,2,freebird1,79,40,5,birdincage2.png,box5,1,609,1500,24
6.6.1,win,2022-07-30,20:44:16,1,1,1,level1,2,freebird1,81,41,6,birdincage2.png,box6,1,519,1000,25
6.6.1,win,2022-07-30,20:44:16,1,1,1,level1,2,freebird1,83,42,4,birdincage2.png,0,0,500,500,25
6.6.1,win,2022-07-30,20:44:16,1,1,1,level1,2,freebird1,85,43,5,birdincage2.png,box4,0,41,1000,25
6.6.1,win,2022-07-30,20:44:16,1,1,1,level1,2,freebird1,87,44,7,birdincage2.png,box7,1,768,1500,26
6.6.1,win,2022-07-30,20:44:16,1,1,1,level1,2,freebird1,89,45,5,birdincage2.png,box5,1,403,1000,27
6.6.1,win,2022-07-30,20:44:16,1,1,1,level1,2,freebird1,91,46,4,birdincage2.png,box4,1,400,500,28
6.6.1,win,2022-07-30,20:44:16,1,1,1,level1,2,freebird1,93,47,8,birdincage2.png,0,0,0,0,28
6.6.1,win,2022-07-30,20:44:16,1,1,1,level1,2,freebird1,95,48,9,birdincage2.png,box9,1,483,500,29
6.6.1,win,2022-07-30,20:44:16,1,1,1,level1,2,freebird1,97,49,4,birdincage2.png,0,0,0,0,29
6.6.1,win,2022-07-30,20:44:16,1,1,1,level1,2,freebird1,99,50,8,birdincage2.png,box4,0,260,500,29
6.6.1,win,2022-07-30,20:44:16,1,1,1,level1,2,freebird1,101,51,2,birdincage2.png,box2,1,703,1000,30
6.6.1,win,2022-07-30,20:44:16,1,1,1,level1,2,freebird1,103,52,3,birdincage2.png,0,0,500,500,30
6.6.1,win,2022-07-30,20:44:16,1,1,1,level1,2,freebird1,105,53,7,birdincage2.png,box7,1,500,1000,31
6.6.1,win,2022-07-30,20:44:16,1,1,1,level1,2,freebird1,107,54,10,birdincage2.png,box10,1,490,500,32
6.6.1,win,2022-07-30,20:44:16,1,1,1,level1,2,freebird1,109,55,5,birdincage2.png,0,0,0,0,32
6.6.1,win,2022-07-30,20:44:16,1,1,1,level1,2,freebird1,111,56,2,birdincage2.png,0,0,500,500,32
6.6.1,win,2022-07-30,20:44:16,1,1,1,level1,2,freebird1,113,57,3,birdincage2.png,box3,1,531,1000,33
6.6.1,win,2022-07-30,20:44:16,1,1,1,level1,2,freebird1,115,58,8,birdincage2.png,box8,1,403,500,34
6.6.1,win,2022-07-30,20:44:16,1,1,1,level1,2,freebird1,117,59,4,birdincage2.png,0,0,0,0,34
6.6.1,win,2022-07-30,20:44:16,1,1,1,level1,2,freebird1,119,60,8,birdincage2.png,0,0,500,500,34
6.6.1,win,2022-07-30,20:44:16,1,1,1,level1,2,freebird1,121,61,9,birdincage2.png,box8,0,45,1000,34
6.6.1,win,2022-07-30,20:44:16,1,1,1,level1,2,freebird1,123,62,4,birdincage2.png,box4,1,505,1500,35
6.6.1,win,2022-07-30,20:44:16,1,1,1,level1,2,freebird1,125,63,7,birdincage2.png,box7,1,560,1000,36
6.6.1,win,2022-07-30,20:44:16,1,1,1,level1,2,freebird1,127,64,5,birdincage2.png,0,0,500,500,36
6.6.1,win,2022-07-30,20:44:16,1,1,1,level1,2,freebird1,129,65,4,birdincage2.png,box5,0,96,1000,36
6.6.1,win,2022-07-30,20:44:16,1,1,1,level1,2,freebird1,131,66,5,birdincage2.png,box5,1,322,1500,37
6.6.1,win,2022-07-30,20:44:16,1,1,1,level1,2,freebird1,133,67,4,birdincage2.png,box4,1,846,1000,38
6.6.1,win,2022-07-30,20:44:16,1,1,1,level1,2,freebird1,135,68,1,birdincage2.png,box1,0,487,500,38
6.6.1,win,2022-07-30,20:44:16,1,1,1,level1,2,freebird1,137,69,3,birdincage2.png,box3,1,515,1000,39
6.6.1,win,2022-07-30,20:44:16,1,1,1,level1,2,freebird1,139,70,7,birdincage2.png,box7,1,437,500,40
6.6.1,win,2022-07-30,20:44:16,1,1,1,level1,2,freebird1,141,71,10,birdincage2.png,0,0,0,0,40
6.6.1,win,2022-07-30,20:44:16,1,1,1,level1,2,freebird1,143,72,8,birdincage2.png,0,0,500,500,40
6.6.1,win,2022-07-30,20:44:16,1,1,1,level1,2,freebird1,145,73,9,birdincage2.png,box8,0,337,1000,40
6.6.1,win,2022-07-30,20:44:16,1,1,1,level1,2,freebird1,147,74,8,birdincage2.png,box8,1,496,1500,41
6.6.1,win,2022-07-30,20:44:16,1,1,1,level1,2,freebird1,149,75,2,birdincage2.png,box2,1,524,1000,42
6.6.1,win,2022-07-30,20:44:16,1,1,1,level1,2,freebird1,151,76,8,birdincage2.png,0,0,500,500,42
6.6.1,win,2022-07-30,20:44:16,1,1,1,level1,2,freebird1,153,77,10,birdincage2.png,box8,0,198,1000,42
6.6.1,win,2022-07-30,20:44:16,1,1,1,level1,2,freebird1,155,78,3,birdincage2.png,box3,1,715,1500,43
6.6.1,win,2022-07-30,20:44:16,1,1,1,level1,2,freebird1,157,79,2,birdincage2.png,box2,1,585,1000,44
6.6.1,win,2022-07-30,20:44:16,1,1,1,level1,2,freebird1,159,80,6,birdincage2.png,box6,1,475,500,45
6.6.1,win,2022-07-30,20:44:16,1,1,1,level1,2,freebird1,161,81,3,birdincage2.png,0,0,0,0,45
6.6.1,win,2022-07-30,20:44:16,1,1,1,level1,2,freebird1,163,82,8,birdincage2.png,0,0,500,500,45
6.6.1,win,2022-07-30,20:44:16,1,1,1,level1,2,freebird1,165,83,4,birdincage2.png,box4,1,795,1000,46
6.6.1,win,2022-07-30,20:44:16,1,1,1,level1,2,freebird1,167,84,5,birdincage2.png,0,0,500,500,46
6.6.1,win,2022-07-30,20:44:16,1,1,1,level1,2,freebird1,169,85,10,birdincage2.png,box10,1,826,1000,47
6.6.1,win,2022-07-30,20:44:16,1,1,1,level1,2,freebird1,171,86,7,birdincage2.png,box7,1,475,500,48
6.6.1,win,2022-07-30,20:44:16,1,1,1,level1,2,freebird1,173,87,9,birdincage2.png,0,0,0,0,48
6.6.1,win,2022-07-30,20:44:16,1,1,1,level1,2,freebird1,175,88,10,birdincage2.png,box10,1,490,500,49
6.6.1,win,2022-07-30,20:44:16,1,1,1,level1,2,freebird1,177,89,7,birdincage2.png,0,0,0,0,49
6.6.1,win,2022-07-30,20:44:16,1,1,1,level1,2,freebird1,179,90,4,birdincage2.png,box4,1,386,500,50
6.6.1,win,2022-07-30,20:44:16,1,1,1,level1,2,freebird1,181,91,10,birdincage2.png,0,0,0,0,50
6.6.1,win,2022-07-30,20:44:16,1,1,1,level1,2,freebird1,183,92,6,birdincage2.png,0,0,500,500,50
6.6.1,win,2022-07-30,20:44:16,1,1,1,level1,2,freebird1,185,93,3,birdincage2.png,box6,0,27,1000,50
6.6.1,win,2022-07-30,20:44:16,1,1,1,level1,2,freebird1,187,94,2,birdincage2.png,box2,1,443,1500,51
6.6.1,win,2022-07-30,20:44:16,1,1,1,level1,2,freebird1,189,95,3,birdincage2.png,box3,1,495,1000,52
6.6.1,win,2022-07-30,20:44:16,1,1,1,level1,2,freebird1,191,96,10,birdincage2.png,0,0,500,500,52
6.6.1,win,2022-07-30,20:44:16,1,1,1,level1,2,freebird1,193,97,9,birdincage2.png,box10,0,106,1000,52
6.6.1,win,2022-07-30,20:44:16,1,1,1,level1,2,freebird1,195,98,5,birdincage2.png,box5,1,939,1500,53
6.6.1,win,2022-07-30,20:44:16,1,1,1,level1,2,freebird1,197,99,6,birdincage2.png,box6,1,474,1000,54
6.6.1,win,2022-07-30,20:44:16,1,1,1,level1,2,freebird1,199,100,10,birdincage2.png,box10,1,480,500,55
6.6.1,win,2022-07-30,20:44:16,1,1,1,level1,2,freebird1,201,101,7,birdincage2.png,0,0,0,0,55
6.6.1,win,2022-07-30,20:44:16,1,1,1,level1,2,freebird1,203,102,3,birdincage2.png,0,0,500,500,55
6.6.1,win,2022-07-30,20:44:16,1,1,1,level1,2,freebird1,205,103,8,birdincage2.png,box3,0,285,1000,55
6.6.1,win,2022-07-30,20:44:16,1,1,1,level1,2,freebird1,207,104,3,birdincage2.png,box3,1,475,1500,56
6.6.1,win,2022-07-30,20:44:16,1,1,1,level1,2,freebird1,209,105,9,birdincage2.png,box9,1,450,1000,57
6.6.1,win,2022-07-30,20:44:16,1,1,1,level1,2,freebird1,211,106,4,birdincage2.png,0,0,500,500,57
6.6.1,win,2022-07-30,20:44:16,1,1,1,level1,2,freebird1,213,107,7,birdincage2.png,box7,1,562,1000,58
6.6.1,win,2022-07-30,20:44:16,1,1,1,level1,2,freebird1,215,108,4,birdincage2.png,box4,1,415,500,59
6.6.1,win,2022-07-30,20:44:16,1,1,1,level1,2,freebird1,217,109,2,birdincage2.png,0,0,0,0,59
6.6.1,win,2022-07-30,20:44:16,1,1,1,level1,2,freebird1,219,110,7,birdincage2.png,0,0,500,500,59
6.6.1,win,2022-07-30,20:44:16,1,1,1,level1,2,freebird1,221,111,9,birdincage2.png,box7,0,247,1000,59
6.6.1,win,2022-07-30,20:44:16,1,1,1,level1,2,freebird1,223,112,1,birdincage2.png,box9,0,129,1500,59
6.6.1,win,2022-07-30,20:44:16,1,1,1,level1,2,freebird1,225,113,8,birdincage2.png,box8,1,564,2000,60
6.6.1,win,2022-07-30,20:44:16,1,1,1,level1,2,freebird1,227,114,3,birdincage2.png,box3,1,534,1500,61
6.6.1,win,2022-07-30,20:44:16,1,1,1,level1,2,freebird1,229,115,10,birdincage2.png,box10,1,531,1000,62
6.6.1,win,2022-07-30,20:44:16,1,1,1,level1,2,freebird1,231,116,1,birdincage2.png,box1,0,487,500,62
6.6.1,win,2022-07-30,20:44:16,1,1,1,level1,2,freebird1,233,117,2,birdincage2.png,box2,1,641,1000,63
6.6.1,win,2022-07-30,20:44:16,1,1,1,level1,2,freebird1,235,118,6,birdincage2.png,0,0,500,500,63
6.6.1,win,2022-07-30,20:44:16,1,1,1,level1,2,freebird1,237,119,10,birdincage2.png,box10,1,757,1000,64
6.6.1,win,2022-07-30,20:44:16,1,1,1,level1,2,freebird1,239,120,8,birdincage2.png,box8,1,494,500,65
6.6.1,win,2022-07-30,20:44:16,1,1,1,level1,2,freebird1,241,121,5,birdincage2.png,0,0,0,0,65
6.6.1,win,2022-07-30,20:44:16,1,1,1,level1,2,freebird1,243,122,4,birdincage2.png,0,0,500,500,65
6.6.1,win,2022-07-30,20:44:16,1,1,1,level1,2,freebird1,245,123,6,birdincage2.png,box6,1,839,1000,66
6.6.1,win,2022-07-30,20:44:16,1,1,1,level1,2,freebird1,247,124,4,birdincage2.png,box4,1,451,500,67
6.6.1,win,2022-07-30,20:44:16,1,1,1,level1,2,freebird1,249,125,9,birdincage2.png,0,0,0,0,67
6.6.1,win,2022-07-30,20:44:16,1,1,1,level1,2,freebird1,251,126,4,birdincage2.png,0,0,500,500,67
6.6.1,win,2022-07-30,20:44:16,1,1,1,level1,2,freebird1,253,127,7,birdincage2.png,box4,0,70,1000,67
6.6.1,win,2022-07-30,20:44:16,1,1,1,level1,2,freebird1,255,128,3,birdincage2.png,box3,1,843,1500,68
6.6.1,win,2022-07-30,20:44:16,1,1,1,level1,2,freebird1,257,129,6,birdincage2.png,box6,1,510,1000,69
6.6.1,win,2022-07-30,20:44:16,1,1,1,level1,2,freebird1,259,130,5,birdincage2.png,box5,1,463,500,70
6.6.1,win,2022-07-30,20:44:16,1,1,1,level1,2,freebird1,261,131,1,birdincage2.png,0,0,0,0,70
6.6.1,win,2022-07-30,20:44:16,1,1,1,level1,2,freebird1,263,132,5,birdincage2.png,0,0,500,500,70
6.6.1,win,2022-07-30,20:44:16,1,1,1,level1,2,freebird1,265,133,1,birdincage2.png,box1,0,641,1000,70
6.6.1,win,2022-07-30,20:44:16,1,1,1,level1,2,freebird1,267,134,6,birdincage2.png,box6,1,463,1500,71
6.6.1,win,2022-07-30,20:44:16,1,1,1,level1,2,freebird1,269,135,10,birdincage2.png,box10,1,433,1000,72
6.6.1,win,2022-07-30,20:44:16,1,1,1,level1,2,freebird1,271,136,8,birdincage2.png,0,0,500,500,72
6.6.1,win,2022-07-30,20:44:16,1,1,1,level1,2,freebird1,273,137,5,birdincage2.png,box8,0,285,1000,72
6.6.1,win,2022-07-30,20:44:16,1,1,1,level1,2,freebird1,275,138,2,birdincage2.png,box2,1,480,1500,73
6.6.1,win,2022-07-30,20:44:16,1,1,1,level1,2,freebird1,277,139,1,birdincage2.png,box1,0,514,1000,73
6.6.1,win,2022-07-30,20:44:16,1,1,1,level1,2,freebird1,279,140,2,birdincage2.png,box2,1,657,1500,74
6.6.1,win,2022-07-30,20:44:16,1,1,1,level1,2,freebird1,281,141,5,birdincage2.png,box5,1,541,1000,75
6.6.1,win,2022-07-30,20:44:16,1,1,1,level1,2,freebird1,283,142,4,birdincage2.png,0,0,500,500,75
6.6.1,win,2022-07-30,20:44:16,1,1,1,level1,2,freebird1,285,143,8,birdincage2.png,box4,0,34,1000,75
6.6.1,win,2022-07-30,20:44:16,1,1,1,level1,2,freebird1,287,144,4,birdincage2.png,box4,1,570,1500,76
6.6.1,win,2022-07-30,20:44:16,1,1,1,level1,2,freebird1,289,145,5,birdincage2.png,box5,1,533,1000,77
6.6.1,win,2022-07-30,20:44:16,1,1,1,level1,2,freebird1,291,146,4,birdincage2.png,0,0,500,500,77
6.6.1,win,2022-07-30,20:44:16,1,1,1,level1,2,freebird1,293,147,3,birdincage2.png,box4,0,90,1000,77
6.6.1,win,2022-07-30,20:44:16,1,1,1,level1,2,freebird1,295,148,8,birdincage2.png,box8,1,628,1500,78
6.6.1,win,2022-07-30,20:44:16,1,1,1,level1,2,freebird1,297,149,7,birdincage2.png,box7,1,502,1000,79
6.6.1,win,2022-07-30,20:44:16,1,1,1,level1,2,freebird1,299,150,10,birdincage2.png,0,0,500,500,79
6.6.1,win,2022-07-30,20:44:16,1,1,1,level1,2,freebird1,301,151,3,birdincage2.png,box3,1,446,1000,80
6.6.1,win,2022-07-30,20:44:16,1,1,1,level1,2,freebird1,303,152,4,birdincage2.png,box4,1,441,500,81
6.6.1,win,2022-07-30,20:44:16,1,1,1,level1,2,freebird1,305,153,2,birdincage2.png,0,0,0,0,81
6.6.1,win,2022-07-30,20:44:16,1,1,1,level1,2,freebird1,307,154,4,birdincage2.png,0,0,500,500,81
6.6.1,win,2022-07-30,20:44:16,1,1,1,level1,2,freebird1,309,155,2,birdincage2.png,box2,1,544,1000,82
6.6.1,win,2022-07-30,20:44:16,1,1,1,level1,2,freebird1,311,156,9,birdincage2.png,0,0,500,500,82
6.6.1,win,2022-07-30,20:44:16,1,1,1,level1,2,freebird1,313,157,3,birdincage2.png,box9,0,150,1000,82
6.6.1,win,2022-07-30,20:44:16,1,1,1,level1,2,freebird1,315,158,4,birdincage2.png,box3,0,250,1500,82
6.6.1,win,2022-07-30,20:44:16,1,1,1,level1,2,freebird1,317,159,2,birdincage2.png,box4,0,183,2000,82
6.6.1,win,2022-07-30,20:44:16,1,1,1,level1,2,freebird1,319,160,10,birdincage2.png,box10,1,945,2500,83
6.6.1,win,2022-07-30,20:44:16,1,1,1,level1,2,freebird1,321,161,1,birdincage2.png,box1,0,487,2000,83
6.6.1,win,2022-07-30,20:44:16,1,1,1,level1,2,freebird1,323,162,2,birdincage2.png,box2,1,571,2500,84
6.6.1,win,2022-07-30,20:44:16,1,1,1,level1,2,freebird1,325,163,6,birdincage2.png,box6,1,520,2000,85
6.6.1,win,2022-07-30,20:44:16,1,1,1,level1,2,freebird1,327,164,4,birdincage2.png,box4,1,634,1500,86
6.6.1,win,2022-07-30,20:44:16,1,1,1,level1,2,freebird1,329,165,6,birdincage2.png,box6,1,483,1000,87
6.6.1,win,2022-07-30,20:44:16,1,1,1,level1,2,freebird1,331,166,2,birdincage2.png,0,0,500,500,87
6.6.1,win,2022-07-30,20:44:16,1,1,1,level1,2,freebird1,333,167,3,birdincage2.png,box3,1,502,1000,88
6.6.1,win,2022-07-30,20:44:16,1,1,1,level1,2,freebird1,335,168,8,birdincage2.png,0,0,500,500,88
6.6.1,win,2022-07-30,20:44:16,1,1,1,level1,2,freebird1,337,169,1,birdincage2.png,box1,0,868,1000,88
6.6.1,win,2022-07-30,20:44:16,1,1,1,level1,2,freebird1,339,170,6,birdincage2.png,box6,1,438,1500,89
6.6.1,win,2022-07-30,20:44:16,1,1,1,level1,2,freebird1,341,171,8,birdincage2.png,box8,1,488,1000,90
6.6.1,win,2022-07-30,20:44:16,1,1,1,level1,2,freebird1,343,172,3,birdincage2.png,0,0,500,500,90
6.6.1,win,2022-07-30,20:44:16,1,1,1,level1,2,freebird1,345,173,6,birdincage2.png,box6,1,585,1000,91
6.6.1,win,2022-07-30,20:44:16,1,1,1,level1,2,freebird1,347,174,8,birdincage2.png,0,0,500,500,91
6.6.1,win,2022-07-30,20:44:16,1,1,1,level1,2,freebird1,349,175,5,birdincage2.png,box5,1,432,1000,92
6.6.1,win,2022-07-30,20:44:16,1,1,1,level1,2,freebird1,351,176,1,birdincage2.png,0,0,500,500,92
6.6.1,win,2022-07-30,20:44:16,1,1,1,level1,2,freebird1,353,177,2,birdincage2.png,box2,1,469,1000,93
6.6.1,win,2022-07-30,20:44:16,1,1,1,level1,2,freebird1,355,178,9,birdincage2.png,0,0,500,500,93
6.6.1,win,2022-07-30,20:44:16,1,1,1,level1,2,freebird1,357,179,3,birdincage2.png,box3,1,535,1000,94
6.6.1,win,2022-07-30,20:44:16,1,1,1,level1,2,freebird1,359,180,9,birdincage2.png,box9,1,477,500,95
6.6.1,win,2022-07-30,20:44:16,1,1,1,level1,2,freebird1,361,181,10,birdincage2.png,0,0,0,0,95
6.6.1,win,2022-07-30,20:44:16,1,1,1,level1,2,freebird1,363,182,6,birdincage2.png,0,0,500,500,95
6.6.1,win,2022-07-30,20:44:16,1,1,1,level1,2,freebird1,365,183,5,birdincage2.png,box5,1,419,1000,96
6.6.1,win,2022-07-30,20:44:16,1,1,1,level1,2,freebird1,367,184,10,birdincage2.png,box10,1,431,500,97
6.6.1,win,2022-07-30,20:44:16,1,1,1,level1,2,freebird1,369,185,3,birdincage2.png,0,0,0,0,97
6.6.1,win,2022-07-30,20:44:16,1,1,1,level1,2,freebird1,371,186,1,birdincage2.png,0,0,500,500,97
6.6.1,win,2022-07-30,20:44:16,1,1,1,level1,2,freebird1,373,187,2,birdincage2.png,box2,1,462,1000,98
6.6.1,win,2022-07-30,20:44:16,1,1,1,level1,2,freebird1,375,188,9,birdincage2.png,0,0,500,500,98
6.6.1,win,2022-07-30,20:44:16,1,1,1,level1,2,freebird1,377,189,4,birdincage2.png,box4,1,784,1000,99
6.6.1,win,2022-07-30,20:44:16,1,1,1,level1,2,freebird1,379,190,9,birdincage2.png,0,0,500,500,99
6.6.1,win,2022-07-30,20:44:16,1,1,1,level1,2,freebird1,381,191,10,birdincage2.png,box10,1,501,1000,100
6.6.1,win,2022-07-30,20:44:16,1,1,1,level1,2,freebird1,383,192,9,birdincage2.png,0,0,500,500,100
6.6.1,win,2022-07-30,20:44:16,1,1,1,level1,2,freebird1,385,193,6,birdincage2.png,box9,0,19,1000,100
6.6.1,win,2022-07-30,20:44:16,1,1,1,level1,2,freebird1,387,194,5,birdincage2.png,box5,1,774,1500,101
6.6.1,win,2022-07-30,20:44:16,1,1,1,level1,2,freebird1,389,195,2,birdincage2.png,box2,1,685,1000,102
6.6.1,win,2022-07-30,20:44:16,1,1,1,level1,2,freebird1,391,196,6,birdincage2.png,0,0,500,500,102
6.6.1,win,2022-07-30,20:44:16,1,1,1,level1,2,freebird1,393,197,3,birdincage2.png,box3,1,496,1000,103
6.6.1,win,2022-07-30,20:44:16,1,1,1,level1,2,freebird1,395,198,4,birdincage2.png,0,0,500,500,103
6.6.1,win,2022-07-30,20:44:16,1,1,1,level1,2,freebird1,397,199,8,birdincage2.png,0,0,1000,1000,103
6.6.1,win,2022-07-30,20:44:16,1,1,1,level1,2,freebird1,399,200,10,birdincage2.png,box10,1,468,1500,104
6.6.1,win,2022-07-30,20:44:16,1,1,1,level1,2,freebird1,401,201,2,birdincage2.png,box2,1,405,1000,105
6.6.1,win,2022-07-30,20:44:16,1,1,1,level1,2,freebird1,403,202,10,birdincage2.png,box10,1,424,500,106
6.6.1,win,2022-07-30,20:44:16,1,1,1,level1,2,freebird1,405,203,1,birdincage2.png,0,0,0,0,106
6.6.1,win,2022-07-30,20:44:16,1,1,1,level1,2,freebird1,407,204,6,birdincage2.png,box1,0,262,500,106
6.6.1,win,2022-07-30,20:44:16,1,1,1,level1,2,freebird1,409,205,4,birdincage2.png,0,0,1000,1000,106
6.6.1,win,2022-07-30,20:44:16,1,1,1,level1,2,freebird1,411,206,5,birdincage2.png,box4,0,9,1500,106
6.6.1,win,2022-07-30,20:44:16,1,1,1,level1,2,freebird1,413,207,8,birdincage2.png,box8,1,807,2000,107
6.6.1,win,2022-07-30,20:44:16,1,1,1,level1,2,freebird1,415,208,1,birdincage2.png,box1,0,416,1500,107
6.6.1,win,2022-07-30,20:44:16,1,1,1,level1,2,freebird1,417,209,9,birdincage2.png,box9,1,511,2000,108
6.6.1,win,2022-07-30,20:44:16,1,1,1,level1,2,freebird1,419,210,3,birdincage2.png,box3,1,471,1500,109
6.6.1,win,2022-07-30,20:44:16,1,1,1,level1,2,freebird1,421,211,6,birdincage2.png,box6,1,653,1000,110
6.6.1,win,2022-07-30,20:44:16,1,1,1,level1,2,freebird1,423,212,4,birdincage2.png,0,0,500,500,110
6.6.1,win,2022-07-30,20:44:16,1,1,1,level1,2,freebird1,425,213,1,birdincage2.png,box1,0,629,1000,110
6.6.1,win,2022-07-30,20:44:16,1,1,1,level1,2,freebird1,427,214,9,birdincage2.png,box9,1,519,1500,111
6.6.1,win,2022-07-30,20:44:16,1,1,1,level1,2,freebird1,429,215,10,birdincage2.png,box10,1,474,1000,112
6.6.1,win,2022-07-30,20:44:16,1,1,1,level1,2,freebird1,431,216,7,birdincage2.png,0,0,500,500,112
6.6.1,win,2022-07-30,20:44:16,1,1,1,level1,2,freebird1,433,217,4,birdincage2.png,box4,1,496,1000,113
6.6.1,win,2022-07-30,20:44:16,1,1,1,level1,2,freebird1,435,218,2,birdincage2.png,0,0,500,500,113
6.6.1,win,2022-07-30,20:44:16,1,1,1,level1,2,freebird1,437,219,10,birdincage2.png,box10,1,469,1000,114
6.6.1,win,2022-07-30,20:44:16,1,1,1,level1,2,freebird1,439,220,4,birdincage2.png,0,0,500,500,114
6.6.1,win,2022-07-30,20:44:16,1,1,1,level1,2,freebird1,441,221,10,birdincage2.png,box10,1,484,1000,115
6.6.1,win,2022-07-30,20:44:16,1,1,1,level1,2,freebird1,443,222,3,birdincage2.png,box3,1,416,500,116
6.6.1,win,2022-07-30,20:44:16,1,1,1,level1,2,freebird1,445,223,8,birdincage2.png,0,0,0,0,116
6.6.1,win,2022-07-30,20:44:16,1,1,1,level1,2,freebird1,447,224,6,birdincage2.png,0,0,500,500,116
6.6.1,win,2022-07-30,20:44:16,1,1,1,level1,2,freebird1,449,225,8,birdincage2.png,box8,1,475,1000,117
6.6.1,win,2022-07-30,20:44:16,1,1,1,level1,2,freebird1,451,226,1,birdincage2.png,0,0,500,500,117
6.6.1,win,2022-07-30,20:44:16,1,1,1,level1,2,freebird1,453,227,5,birdincage2.png,box5,1,569,1000,118
6.6.1,win,2022-07-30,20:44:16,1,1,1,level1,2,freebird1,455,228,2,birdincage2.png,0,0,500,500,118
6.6.1,win,2022-07-30,20:44:16,1,1,1,level1,2,freebird1,457,229,7,birdincage2.png,box7,1,867,1000,119
6.6.1,win,2022-07-30,20:44:16,1,1,1,level1,2,freebird1,459,230,4,birdincage2.png,0,0,500,500,119
6.6.1,win,2022-07-30,20:44:16,1,1,1,level1,2,freebird1,461,231,8,birdincage2.png,box4,0,252,1000,119
6.6.1,win,2022-07-30,20:44:16,1,1,1,level1,2,freebird1,463,232,9,birdincage2.png,box9,1,689,1500,120
6.6.1,win,2022-07-30,20:44:16,1,1,1,level1,2,freebird1,465,233,4,birdincage2.png,box4,1,579,1000,121
6.6.1,win,2022-07-30,20:44:16,1,1,1,level1,2,freebird1,467,234,6,birdincage2.png,0,0,500,500,121
6.6.1,win,2022-07-30,20:44:16,1,1,1,level1,2,freebird1,469,235,9,birdincage2.png,box9,1,714,1000,122
6.6.1,win,2022-07-30,20:44:16,1,1,1,level1,2,freebird1,471,236,1,birdincage2.png,box1,0,451,500,122
6.6.1,win,2022-07-30,20:44:16,1,1,1,level1,2,freebird1,473,237,8,birdincage2.png,box8,1,968,1000,123
6.6.1,win,2022-07-30,20:44:16,1,1,1,level1,2,freebird1,475,238,9,birdincage2.png,box9,1,484,500,124
6.6.1,win,2022-07-30,20:44:16,1,1,1,level1,2,freebird1,477,239,4,birdincage2.png,0,0,0,0,124
6.6.1,win,2022-07-30,20:44:16,1,1,1,level1,2,freebird1,479,240,5,birdincage2.png,0,0,500,500,124
6.6.1,win,2022-07-30,20:44:16,1,1,1,level1,2,freebird1,481,241,8,birdincage2.png,box5,0,6,1000,124
6.6.1,win,2022-07-30,20:44:16,1,1,1,level1,2,freebird1,483,242,1,birdincage2.png,box1,0,562,1500,124
6.6.1,win,2022-07-30,20:44:16,1,1,1,level1,2,freebird1,485,243,8,birdincage2.png,box8,1,707,2000,125
6.6.1,win,2022-07-30,20:44:16,1,1,1,level1,2,freebird1,487,244,6,birdincage2.png,box6,1,451,1500,126
6.6.1,win,2022-07-30,20:44:16,1,1,1,level1,2,freebird1,489,245,9,birdincage2.png,box9,1,426,1000,127
6.6.1,win,2022-07-30,20:44:16,1,1,1,level1,2,freebird1,491,246,1,birdincage2.png,0,0,500,500,127
6.6.1,win,2022-07-30,20:44:16,1,1,1,level1,2,freebird1,493,247,9,birdincage2.png,box9,1,474,1000,128
6.6.1,win,2022-07-30,20:44:16,1,1,1,level1,2,freebird1,495,248,2,birdincage2.png,box2,1,386,500,129
6.6.1,win,2022-07-30,20:44:16,1,1,1,level1,2,freebird1,497,249,10,birdincage2.png,0,0,0,0,129
6.6.1,win,2022-07-30,20:44:16,1,1,1,level1,2,freebird1,499,250,7,birdincage2.png,0,0,500,500,129
6.6.1,win,2022-07-30,20:44:16,1,1,1,level1,2,freebird1,501,251,4,birdincage2.png,box7,0,199,1000,129
6.6.1,win,2022-07-30,20:44:16,1,1,1,level1,2,freebird1,503,252,5,birdincage2.png,box5,1,396,1500,130
6.6.1,win,2022-07-30,20:44:16,1,1,1,level1,2,freebird1,505,253,6,birdincage2.png,box6,1,457,1000,131
6.6.1,win,2022-07-30,20:44:16,1,1,1,level1,2,freebird1,507,254,10,birdincage2.png,0,0,500,500,131
6.6.1,win,2022-07-30,20:44:16,1,1,1,level1,2,freebird1,509,255,4,birdincage2.png,box4,1,690,1000,132
6.6.1,win,2022-07-30,20:44:16,1,1,1,level1,2,freebird1,511,256,1,birdincage2.png,0,0,500,500,132
6.6.1,win,2022-07-30,20:44:16,1,1,1,level1,2,freebird1,513,257,5,birdincage2.png,box5,1,752,1000,133
6.6.1,win,2022-07-30,20:44:16,1,1,1,level1,2,freebird1,515,258,10,birdincage2.png,0,0,500,500,133
6.6.1,win,2022-07-30,20:44:16,1,1,1,level1,2,freebird1,517,259,8,birdincage2.png,box10,0,196,1000,133
6.6.1,win,2022-07-30,20:44:16,1,1,1,level1,2,freebird1,519,260,3,birdincage2.png,box3,1,884,1500,134
6.6.1,win,2022-07-30,20:44:16,1,1,1,level1,2,freebird1,521,261,2,birdincage2.png,box2,1,628,1000,135
6.6.1,win,2022-07-30,20:44:16,1,1,1,level1,2,freebird1,523,262,1,birdincage2.png,box1,0,461,500,135
6.6.1,win,2022-07-30,20:44:16,1,1,1,level1,2,freebird1,525,263,9,birdincage2.png,box9,1,537,1000,136
6.6.1,win,2022-07-30,20:44:16,1,1,1,level1,2,freebird1,527,264,7,birdincage2.png,0,0,500,500,136
6.6.1,win,2022-07-30,20:44:16,1,1,1,level1,2,freebird1,529,265,9,birdincage2.png,box9,1,610,1000,137
6.6.1,win,2022-07-30,20:44:16,1,1,1,level1,2,freebird1,531,266,10,birdincage2.png,0,0,500,500,137
6.6.1,win,2022-07-30,20:44:16,1,1,1,level1,2,freebird1,533,267,6,birdincage2.png,box6,1,769,1000,138
6.6.1,win,2022-07-30,20:44:16,1,1,1,level1,2,freebird1,535,268,8,birdincage2.png,0,0,500,500,138
6.6.1,win,2022-07-30,20:44:16,1,1,1,level1,2,freebird1,537,269,4,birdincage2.png,box4,1,777,1000,139
6.6.1,win,2022-07-30,20:44:16,1,1,1,level1,2,freebird1,539,270,10,birdincage2.png,box10,1,367,500,140
6.6.1,win,2022-07-30,20:44:16,1,1,1,level1,2,freebird1,541,271,6,birdincage2.png,0,0,0,0,140
6.6.1,win,2022-07-30,20:44:16,1,1,1,level1,2,freebird1,543,272,3,birdincage2.png,0,0,500,500,140
6.6.1,win,2022-07-30,20:44:16,1,1,1,level1,2,freebird1,545,273,6,birdincage2.png,box3,0,232,1000,140
6.6.1,win,2022-07-30,20:44:16,1,1,1,level1,2,freebird1,547,274,8,birdincage2.png,box8,1,521,1500,141
6.6.1,win,2022-07-30,20:44:16,1,1,1,level1,2,freebird1,549,275,5,birdincage2.png,box5,1,789,1000,142
6.6.1,win,2022-07-30,20:44:16,1,1,1,level1,2,freebird1,551,276,9,birdincage2.png,0,0,500,500,142
6.6.1,win,2022-07-30,20:44:16,1,1,1,level1,2,freebird1,553,277,3,birdincage2.png,box3,1,812,1000,143
6.6.1,win,2022-07-30,20:44:16,1,1,1,level1,2,freebird1,555,278,7,birdincage2.png,0,0,500,500,143
6.6.1,win,2022-07-30,20:44:16,1,1,1,level1,2,freebird1,557,279,9,birdincage2.png,box9,1,473,1000,144
6.6.1,win,2022-07-30,20:44:16,1,1,1,level1,2,freebird1,559,280,6,birdincage2.png,0,0,500,500,144
6.6.1,win,2022-07-30,20:44:16,1,1,1,level1,2,freebird1,561,281,9,birdincage2.png,box6,0,135,1000,144
6.6.1,win,2022-07-30,20:44:16,1,1,1,level1,2,freebird1,563,282,4,birdincage2.png,box4,1,627,1500,145
6.6.1,win,2022-07-30,20:44:16,1,1,1,level1,2,freebird1,565,283,7,birdincage2.png,box7,1,531,1000,146
6.6.1,win,2022-07-30,20:44:16,1,1,1,level1,2,freebird1,567,284,9,birdincage2.png,box9,1,425,500,147
6.6.1,win,2022-07-30,20:44:16,1,1,1,level1,2,freebird1,569,285,5,birdincage2.png,0,0,0,0,147
6.6.1,win,2022-07-30,20:44:16,1,1,1,level1,2,freebird1,571,286,7,birdincage2.png,0,0,500,500,147
6.6.1,win,2022-07-30,20:44:16,1,1,1,level1,2,freebird1,573,287,1,birdincage2.png,box1,0,525,1000,147
6.6.1,win,2022-07-30,20:44:16,1,1,1,level1,2,freebird1,575,288,10,birdincage2.png,box10,1,444,1500,148
6.6.1,win,2022-07-30,20:44:16,1,1,1,level1,2,freebird1,577,289,6,birdincage2.png,box6,1,722,1000,149
6.6.1,win,2022-07-30,20:44:16,1,1,1,level1,2,freebird1,579,290,1,birdincage2.png,0,0,500,500,149
6.6.1,win,2022-07-30,20:44:16,1,1,1,level1,2,freebird1,581,291,9,birdincage2.png,box9,1,657,1000,150
6.6.1,win,2022-07-30,20:44:16,1,1,1,level1,2,freebird1,583,292,3,birdincage2.png,0,0,500,500,150
6.6.1,win,2022-07-30,20:44:16,1,1,1,level1,2,freebird1,585,293,2,birdincage2.png,box3,0,469,1000,150
6.6.1,win,2022-07-30,20:44:16,1,1,1,level1,2,freebird1,587,294,6,birdincage2.png,box6,1,963,1500,151
6.6.1,win,2022-07-30,20:44:16,1,1,1,level1,2,freebird1,589,295,5,birdincage2.png,box5,1,784,1000,152
6.6.1,win,2022-07-30,20:44:16,1,1,1,level1,2,freebird1,591,296,9,birdincage2.png,box9,1,474,500,153
6.6.1,win,2022-07-30,20:44:16,1,1,1,level1,2,freebird1,593,297,6,birdincage2.png,0,0,0,0,153
6.6.1,win,2022-07-30,20:44:16,1,1,1,level1,2,freebird1,595,298,5,birdincage2.png,box5,1,473,500,154
6.6.1,win,2022-07-30,20:44:16,1,1,1,level1,2,freebird1,597,299,2,birdincage2.png,0,0,0,0,154
6.6.1,win,2022-07-30,20:44:16,1,1,1,level1,2,freebird1,599,300,7,birdincage2.png,0,0,28,500,154
6.6.1,win,2022-07-30,20:44:16,1,1,1,level2A,4,freebird2,1,1,4,birdincage2.png,0,0,963,963.3333333,154
6.6.1,win,2022-07-30,20:44:16,1,1,1,level2A,4,freebird2,3,2,10,birdincage2.png,box10,1,688,963.3333333,155
6.6.1,win,2022-07-30,20:44:16,1,1,1,level2A,4,freebird2,5,3,6,birdincage2.png,box6,1,604,963.3333333,156
6.6.1,win,2022-07-30,20:44:16,1,1,1,level2A,4,freebird2,7,4,4,birdincage2.png,box4,1,674,963.3333333,157
6.6.1,win,2022-07-30,20:44:16,1,1,1,level2A,4,freebird2,9,5,10,birdincage2.png,box10,1,524,963.3333333,158
6.6.1,win,2022-07-30,20:44:16,1,1,1,level2A,4,freebird2,11,6,9,birdincage2.png,box9,1,525,963.3333333,159
6.6.1,win,2022-07-30,20:44:16,1,1,1,level2A,4,freebird2,13,7,2,birdincage2.png,box2,1,574,963.3333333,160
6.6.1,win,2022-07-30,20:44:16,1,1,1,level2A,4,freebird2,15,8,8,birdincage2.png,box8,1,490,963.3333333,161
6.6.1,win,2022-07-30,20:44:16,1,1,1,level2A,4,freebird2,17,9,7,birdincage2.png,box7,1,425,963.3333333,162
6.6.1,win,2022-07-30,20:44:16,1,1,1,level2A,4,freebird2,19,10,2,birdincage2.png,box2,1,515,963.3333333,163
6.6.1,win,2022-07-30,20:44:16,1,1,1,level2A,4,freebird2,21,11,7,birdincage2.png,box7,1,545,963.3333333,164
6.6.1,win,2022-07-30,20:44:16,1,1,1,level2A,4,freebird2,23,12,2,birdincage2.png,box2,1,748,963.3333333,165
6.6.1,win,2022-07-30,20:44:16,1,1,1,level2A,4,freebird2,25,13,4,birdincage2.png,box4,1,516,963.3333333,166
6.6.1,win,2022-07-30,20:44:16,1,1,1,level2A,4,freebird2,27,14,1,birdincage2.png,box1,0,447,963.3333333,166
6.6.1,win,2022-07-30,20:44:16,1,1,1,level2A,4,freebird2,29,15,4,birdincage2.png,box4,1,430,963.3333333,167
6.6.1,win,2022-07-30,20:44:16,1,1,1,level2A,4,freebird2,31,16,2,birdincage2.png,box2,1,636,963.3333333,168
6.6.1,win,2022-07-30,20:44:16,1,1,1,level2A,4,freebird2,33,17,4,birdincage2.png,0,0,963,963.3333333,168
6.6.1,win,2022-07-30,20:44:16,1,1,1,level2A,4,freebird2,35,18,6,birdincage2.png,box4,0,8,963.3333333,168
6.6.1,win,2022-07-30,20:44:16,1,1,1,level2A,4,freebird2,37,19,7,birdincage2.png,box7,1,589,963.3333333,169
6.6.1,win,2022-07-30,20:44:16,1,1,1,level2A,4,freebird2,39,20,9,birdincage2.png,box9,1,460,963.3333333,170
6.6.1,win,2022-07-30,20:44:16,1,1,1,level2A,4,freebird2,41,21,6,birdincage2.png,box6,1,586,963.3333333,171
6.6.1,win,2022-07-30,20:44:16,1,1,1,level2A,4,freebird2,43,22,10,birdincage2.png,box10,1,412,963.3333333,172
6.6.1,win,2022-07-30,20:44:16,1,1,1,level2A,4,freebird2,45,23,9,birdincage2.png,box9,1,506,963.3333333,173
6.6.1,win,2022-07-30,20:44:16,1,1,1,level2A,4,freebird2,47,24,7,birdincage2.png,box7,1,585,963.3333333,174
6.6.1,win,2022-07-30,20:44:16,1,1,1,level2A,4,freebird2,49,25,8,birdincage2.png,box8,1,544,963.3333333,175
6.6.1,win,2022-07-30,20:44:16,1,1,1,level2A,4,freebird2,51,26,10,birdincage2.png,box10,1,424,963.3333333,176
6.6.1,win,2022-07-30,20:44:16,1,1,1,level2A,4,freebird2,53,27,3,birdincage2.png,box3,1,898,963.3333333,177
6.6.1,win,2022-07-30,20:44:16,1,1,1,level2A,4,freebird2,55,28,7,birdincage2.png,box7,1,527,963.3333333,178
6.6.1,win,2022-07-30,20:44:16,1,1,1,level2A,4,freebird2,57,29,6,birdincage2.png,box6,1,733,963.3333333,179
6.6.1,win,2022-07-30,20:44:16,1,1,1,level2A,4,freebird2,59,30,5,birdincage2.png,box5,1,797,963.3333333,180
6.6.1,win,2022-07-30,20:44:16,1,1,1,level2A,4,freebird2,61,31,6,birdincage2.png,box6,1,779,963.3333333,181
6.6.1,win,2022-07-30,20:44:16,1,1,1,level2A,4,freebird2,63,32,2,birdincage2.png,box2,1,566,963.3333333,182
6.6.1,win,2022-07-30,20:44:16,1,1,1,level2A,4,freebird2,65,33,7,birdincage2.png,box7,1,483,963.3333333,183
6.6.1,win,2022-07-30,20:44:16,1,1,1,level2A,4,freebird2,67,34,4,birdincage2.png,box4,1,532,963.3333333,184
6.6.1,win,2022-07-30,20:44:16,1,1,1,level2A,4,freebird2,69,35,7,birdincage2.png,box7,1,387,963.3333333,185
6.6.1,win,2022-07-30,20:44:16,1,1,1,level2A,4,freebird2,71,36,3,birdincage2.png,box3,1,492,963.3333333,186
6.6.1,win,2022-07-30,20:44:16,1,1,1,level2A,4,freebird2,73,37,4,birdincage2.png,box4,1,591,963.3333333,187
6.6.1,win,2022-07-30,20:44:16,1,1,1,level2A,4,freebird2,75,38,9,birdincage2.png,box9,1,456,963.3333333,188
6.6.1,win,2022-07-30,20:44:16,1,1,1,level2A,4,freebird2,77,39,4,birdincage2.png,box4,1,478,963.3333333,189
6.6.1,win,2022-07-30,20:44:16,1,1,1,level2A,4,freebird2,79,40,9,birdincage2.png,box9,1,448,963.3333333,190
6.6.1,win,2022-07-30,20:44:16,1,1,1,level2A,4,freebird2,81,41,5,birdincage2.png,box5,1,454,963.3333333,191
6.6.1,win,2022-07-30,20:44:16,1,1,1,level2A,4,freebird2,83,42,6,birdincage2.png,box6,1,560,963.3333333,192
6.6.1,win,2022-07-30,20:44:16,1,1,1,level2A,4,freebird2,85,43,9,birdincage2.png,box9,1,475,963.3333333,193
6.6.1,win,2022-07-30,20:44:16,1,1,1,level2A,4,freebird2,87,44,7,birdincage2.png,box7,1,461,963.3333333,194
6.6.1,win,2022-07-30,20:44:16,1,1,1,level2A,4,freebird2,89,45,8,birdincage2.png,box8,1,460,963.3333333,195
6.6.1,win,2022-07-30,20:44:16,1,1,1,level2A,4,freebird2,91,46,7,birdincage2.png,box7,1,488,963.3333333,196
6.6.1,win,2022-07-30,20:44:16,1,1,1,level2A,4,freebird2,93,47,8,birdincage2.png,box8,1,389,963.3333333,197
6.6.1,win,2022-07-30,20:44:16,1,1,1,level2A,4,freebird2,95,48,6,birdincage2.png,box6,1,446,963.3333333,198
6.6.1,win,2022-07-30,20:44:16,1,1,1,level2A,4,freebird2,97,49,1,birdincage2.png,box1,0,497,963.3333333,198
6.6.1,win,2022-07-30,20:44:16,1,1,1,level2A,4,freebird2,99,50,7,birdincage2.png,box7,1,487,963.3333333,199
6.6.1,win,2022-07-30,20:44:16,1,1,1,level2A,4,freebird2,101,51,5,birdincage2.png,box5,1,537,963.3333333,200
6.6.1,win,2022-07-30,20:44:16,1,1,1,level2A,4,freebird2,103,52,4,birdincage2.png,box4,1,573,963.3333333,201
6.6.1,win,2022-07-30,20:44:16,1,1,1,level2A,4,freebird2,105,53,5,birdincage2.png,box5,1,563,963.3333333,202
6.6.1,win,2022-07-30,20:44:16,1,1,1,level2A,4,freebird2,107,54,1,birdincage2.png,box1,0,749,963.3333333,202
6.6.1,win,2022-07-30,20:44:16,1,1,1,level2A,4,freebird2,109,55,4,birdincage2.png,box4,1,480,963.3333333,203
6.6.1,win,2022-07-30,20:44:16,1,1,1,level2A,4,freebird2,111,56,2,birdincage2.png,box2,1,592,963.3333333,204
6.6.1,win,2022-07-30,20:44:16,1,1,1,level2A,4,freebird2,113,57,5,birdincage2.png,box5,1,621,963.3333333,205
6.6.1,win,2022-07-30,20:44:16,1,1,1,level2A,4,freebird2,115,58,9,birdincage2.png,box9,1,656,963.3333333,206
6.6.1,win,2022-07-30,20:44:16,1,1,1,level2A,4,freebird2,117,59,6,birdincage2.png,box6,1,531,963.3333333,207
6.6.1,win,2022-07-30,20:44:16,1,1,1,level2A,4,freebird2,119,60,4,birdincage2.png,box4,1,748,963.3333333,208
6.6.1,win,2022-07-30,20:44:16,1,1,1,level2A,4,freebird2,121,61,6,birdincage2.png,box6,1,657,963.3333333,209
6.6.1,win,2022-07-30,20:44:16,1,1,1,level2A,4,freebird2,123,62,5,birdincage2.png,box5,1,464,963.3333333,210
6.6.1,win,2022-07-30,20:44:16,1,1,1,level2A,4,freebird2,125,63,9,birdincage2.png,box9,1,548,963.3333333,211
6.6.1,win,2022-07-30,20:44:16,1,1,1,level2A,4,freebird2,127,64,5,birdincage2.png,box5,1,523,963.3333333,212
6.6.1,win,2022-07-30,20:44:16,1,1,1,level2A,4,freebird2,129,65,9,birdincage2.png,box9,1,409,963.3333333,213
6.6.1,win,2022-07-30,20:44:16,1,1,1,level2A,4,freebird2,131,66,6,birdincage2.png,box6,1,456,963.3333333,214
6.6.1,win,2022-07-30,20:44:16,1,1,1,level2A,4,freebird2,133,67,4,birdincage2.png,box4,1,704,963.3333333,215
6.6.1,win,2022-07-30,20:44:16,1,1,1,level2A,4,freebird2,135,68,10,birdincage2.png,box10,1,702,963.3333333,216
6.6.1,win,2022-07-30,20:44:16,1,1,1,level2A,4,freebird2,137,69,9,birdincage2.png,box9,1,694,963.3333333,217
6.6.1,win,2022-07-30,20:44:16,1,1,1,level2A,4,freebird2,139,70,10,birdincage2.png,box10,1,506,963.3333333,218
6.6.1,win,2022-07-30,20:44:16,1,1,1,level2A,4,freebird2,141,71,6,birdincage2.png,box6,1,491,963.3333333,219
6.6.1,win,2022-07-30,20:44:16,1,1,1,level2A,4,freebird2,143,72,4,birdincage2.png,box4,1,724,963.3333333,220
6.6.1,win,2022-07-30,20:44:16,1,1,1,level2A,4,freebird2,145,73,5,birdincage2.png,box5,1,705,963.3333333,221
6.6.1,win,2022-07-30,20:44:16,1,1,1,level2A,4,freebird2,147,74,6,birdincage2.png,box6,1,490,963.3333333,222
6.6.1,win,2022-07-30,20:44:16,1,1,1,level2A,4,freebird2,149,75,3,birdincage2.png,0,0,963,963.3333333,222
6.6.1,win,2022-07-30,20:44:16,1,1,1,level2A,4,freebird2,151,76,9,birdincage2.png,box9,1,725,963.3333333,223
6.6.1,win,2022-07-30,20:44:16,1,1,1,level2A,4,freebird2,153,77,2,birdincage2.png,box2,1,521,963.3333333,224
6.6.1,win,2022-07-30,20:44:16,1,1,1,level2A,4,freebird2,155,78,3,birdincage2.png,box3,1,592,963.3333333,225
6.6.1,win,2022-07-30,20:44:16,1,1,1,level2A,4,freebird2,157,79,10,birdincage2.png,box10,1,699,963.3333333,226
6.6.1,win,2022-07-30,20:44:16,1,1,1,level2A,4,freebird2,159,80,3,birdincage2.png,box3,1,693,963.3333333,227
6.6.1,win,2022-07-30,20:44:16,1,1,1,level2A,4,freebird2,161,81,6,birdincage2.png,box6,1,686,963.3333333,228
6.6.1,win,2022-07-30,20:44:16,1,1,1,level2A,4,freebird2,163,82,5,birdincage2.png,0,0,963,963.3333333,228
6.6.1,win,2022-07-30,20:44:16,1,1,1,level2A,4,freebird2,165,83,8,birdincage2.png,box5,0,35,963.3333333,228
6.6.1,win,2022-07-30,20:44:16,1,1,1,level2A,4,freebird2,167,84,3,birdincage2.png,box3,1,658,963.3333333,229
6.6.1,win,2022-07-30,20:44:16,1,1,1,level2A,4,freebird2,169,85,7,birdincage2.png,box7,1,486,963.3333333,230
6.6.1,win,2022-07-30,20:44:16,1,1,1,level2A,4,freebird2,171,86,9,birdincage2.png,box9,1,412,963.3333333,231
6.6.1,win,2022-07-30,20:44:16,1,1,1,level2A,4,freebird2,173,87,10,birdincage2.png,box10,1,435,963.3333333,232
6.6.1,win,2022-07-30,20:44:16,1,1,1,level2A,4,freebird2,175,88,9,birdincage2.png,box9,1,458,963.3333333,233
6.6.1,win,2022-07-30,20:44:16,1,1,1,level2A,4,freebird2,177,89,10,birdincage2.png,box10,1,370,963.3333333,234
6.6.1,win,2022-07-30,20:44:16,1,1,1,level2A,4,freebird2,179,90,4,birdincage2.png,box4,1,613,963.3333333,235
6.6.1,win,2022-07-30,20:44:16,1,1,1,level2A,4,freebird2,181,91,3,birdincage2.png,box3,1,671,963.3333333,236
6.6.1,win,2022-07-30,20:44:16,1,1,1,level2A,4,freebird2,183,92,8,birdincage2.png,box8,1,653,963.3333333,237
6.6.1,win,2022-07-30,20:44:16,1,1,1,level2A,4,freebird2,185,93,10,birdincage2.png,box10,1,403,963.3333333,238
6.6.1,win,2022-07-30,20:44:16,1,1,1,level2A,4,freebird2,187,94,1,birdincage2.png,box1,0,438,963.3333333,238
6.6.1,win,2022-07-30,20:44:16,1,1,1,level2A,4,freebird2,189,95,4,birdincage2.png,box4,1,748,963.3333333,239
6.6.1,win,2022-07-30,20:44:16,1,1,1,level2A,4,freebird2,191,96,2,birdincage2.png,box2,1,673,963.3333333,240
6.6.1,win,2022-07-30,20:44:16,1,1,1,level2A,4,freebird2,193,97,8,birdincage2.png,box8,1,490,963.3333333,241
6.6.1,win,2022-07-30,20:44:16,1,1,1,level2A,4,freebird2,195,98,2,birdincage2.png,box2,1,841,963.3333333,242
6.6.1,win,2022-07-30,20:44:16,1,1,1,level2A,4,freebird2,197,99,6,birdincage2.png,box6,1,584,963.3333333,243
6.6.1,win,2022-07-30,20:44:16,1,1,1,level2A,4,freebird2,199,100,7,birdincage2.png,box7,1,591,963.3333333,244
6.6.1,win,2022-07-30,20:44:16,1,1,1,level2A,4,freebird2,201,101,5,birdincage2.png,box5,1,550,963.3333333,245
6.6.1,win,2022-07-30,20:44:16,1,1,1,level2A,4,freebird2,203,102,8,birdincage2.png,box8,1,722,963.3333333,246
6.6.1,win,2022-07-30,20:44:16,1,1,1,level2A,4,freebird2,205,103,10,birdincage2.png,box10,1,813,963.3333333,247
6.6.1,win,2022-07-30,20:44:16,1,1,1,level2A,4,freebird2,207,104,4,birdincage2.png,0,0,963,963.3333333,247
6.6.1,win,2022-07-30,20:44:16,1,1,1,level2A,4,freebird2,209,105,5,birdincage2.png,box5,1,603,963.3333333,248
6.6.1,win,2022-07-30,20:44:16,1,1,1,level2A,4,freebird2,211,106,8,birdincage2.png,box8,1,580,963.3333333,249
6.6.1,win,2022-07-30,20:44:16,1,1,1,level2A,4,freebird2,213,107,4,birdincage2.png,box4,1,551,963.3333333,250
6.6.1,win,2022-07-30,20:44:16,1,1,1,level2A,4,freebird2,215,108,10,birdincage2.png,box10,1,419,963.3333333,251
6.6.1,win,2022-07-30,20:44:16,1,1,1,level2A,4,freebird2,217,109,6,birdincage2.png,box6,1,706,963.3333333,252
6.6.1,win,2022-07-30,20:44:16,1,1,1,level2A,4,freebird2,219,110,2,birdincage2.png,box2,1,529,963.3333333,253
6.6.1,win,2022-07-30,20:44:16,1,1,1,level2A,4,freebird2,221,111,1,birdincage2.png,box1,0,737,963.3333333,253
6.6.1,win,2022-07-30,20:44:16,1,1,1,level2A,4,freebird2,223,112,6,birdincage2.png,box6,1,472,963.3333333,254
6.6.1,win,2022-07-30,20:44:16,1,1,1,level2A,4,freebird2,225,113,8,birdincage2.png,box8,1,495,963.3333333,255
6.6.1,win,2022-07-30,20:44:16,1,1,1,level2A,4,freebird2,227,114,7,birdincage2.png,box7,1,478,963.3333333,256
6.6.1,win,2022-07-30,20:44:16,1,1,1,level2A,4,freebird2,229,115,1,birdincage2.png,box1,0,621,963.3333333,256
6.6.1,win,2022-07-30,20:44:16,1,1,1,level2A,4,freebird2,231,116,10,birdincage2.png,box10,1,444,963.3333333,257
6.6.1,win,2022-07-30,20:44:16,1,1,1,level2A,4,freebird2,233,117,4,birdincage2.png,box4,1,566,963.3333333,258
6.6.1,win,2022-07-30,20:44:16,1,1,1,level2A,4,freebird2,235,118,9,birdincage2.png,box9,1,591,963.3333333,259
6.6.1,win,2022-07-30,20:44:16,1,1,1,level2A,4,freebird2,237,119,7,birdincage2.png,box7,1,495,963.3333333,260
6.6.1,win,2022-07-30,20:44:16,1,1,1,level2A,4,freebird2,239,120,6,birdincage2.png,box6,1,525,963.3333333,261
6.6.1,win,2022-07-30,20:44:16,1,1,1,level2A,4,freebird2,241,121,8,birdincage2.png,box8,1,430,963.3333333,262
6.6.1,win,2022-07-30,20:44:16,1,1,1,level2A,4,freebird2,243,122,5,birdincage2.png,box5,1,543,963.3333333,263
6.6.1,win,2022-07-30,20:44:16,1,1,1,level2A,4,freebird2,245,123,7,birdincage2.png,box7,1,430,963.3333333,264
6.6.1,win,2022-07-30,20:44:16,1,1,1,level2A,4,freebird2,247,124,1,birdincage2.png,box1,0,598,963.3333333,264
6.6.1,win,2022-07-30,20:44:16,1,1,1,level2A,4,freebird2,249,125,8,birdincage2.png,box8,1,434,963.3333333,265
6.6.1,win,2022-07-30,20:44:16,1,1,1,level2A,4,freebird2,251,126,3,birdincage2.png,box3,1,608,963.3333333,266
6.6.1,win,2022-07-30,20:44:16,1,1,1,level2A,4,freebird2,253,127,1,birdincage2.png,box1,0,467,963.3333333,266
6.6.1,win,2022-07-30,20:44:16,1,1,1,level2A,4,freebird2,255,128,3,birdincage2.png,box3,1,446,963.3333333,267
6.6.1,win,2022-07-30,20:44:16,1,1,1,level2A,4,freebird2,257,129,2,birdincage2.png,box2,1,716,963.3333333,268
6.6.1,win,2022-07-30,20:44:16,1,1,1,level2A,4,freebird2,259,130,9,birdincage2.png,box9,1,415,963.3333333,269
6.6.1,win,2022-07-30,20:44:16,1,1,1,level2A,4,freebird2,261,131,10,birdincage2.png,box10,1,861,963.3333333,270
6.6.1,win,2022-07-30,20:44:16,1,1,1,level2A,4,freebird2,263,132,6,birdincage2.png,box6,1,554,963.3333333,271
6.6.1,win,2022-07-30,20:44:16,1,1,1,level2A,4,freebird2,265,133,5,birdincage2.png,box5,1,701,963.3333333,272
6.6.1,win,2022-07-30,20:44:16,1,1,1,level2A,4,freebird2,267,134,8,birdincage2.png,box8,1,435,963.3333333,273
6.6.1,win,2022-07-30,20:44:16,1,1,1,level2A,4,freebird2,269,135,4,birdincage2.png,box4,1,716,963.3333333,274
6.6.1,win,2022-07-30,20:44:16,1,1,1,level2A,4,freebird2,271,136,10,birdincage2.png,box10,1,447,963.3333333,275
6.6.1,win,2022-07-30,20:44:16,1,1,1,level2A,4,freebird2,273,137,3,birdincage2.png,box3,1,537,963.3333333,276
6.6.1,win,2022-07-30,20:44:16,1,1,1,level2A,4,freebird2,275,138,6,birdincage2.png,box6,1,524,963.3333333,277
6.6.1,win,2022-07-30,20:44:16,1,1,1,level2A,4,freebird2,277,139,2,birdincage2.png,box2,1,598,963.3333333,278
6.6.1,win,2022-07-30,20:44:16,1,1,1,level2A,4,freebird2,279,140,3,birdincage2.png,box3,1,496,963.3333333,279
6.6.1,win,2022-07-30,20:44:16,1,1,1,level2A,4,freebird2,281,141,9,birdincage2.png,box9,1,728,963.3333333,280
6.6.1,win,2022-07-30,20:44:16,1,1,1,level2A,4,freebird2,283,142,4,birdincage2.png,box4,1,498,963.3333333,281
6.6.1,win,2022-07-30,20:44:16,1,1,1,level2A,4,freebird2,285,143,3,birdincage2.png,box3,1,625,963.3333333,282
6.6.1,win,2022-07-30,20:44:16,1,1,1,level2A,4,freebird2,287,144,10,birdincage2.png,box10,1,423,963.3333333,283
6.6.1,win,2022-07-30,20:44:16,1,1,1,level2A,4,freebird2,289,145,7,birdincage2.png,box7,1,479,963.3333333,284
6.6.1,win,2022-07-30,20:44:16,1,1,1,level2A,4,freebird2,291,146,8,birdincage2.png,box8,1,749,963.3333333,285
6.6.1,win,2022-07-30,20:44:16,1,1,1,level2A,4,freebird2,293,147,4,birdincage2.png,box4,1,736,963.3333333,286
6.6.1,win,2022-07-30,20:44:16,1,1,1,level2A,4,freebird2,295,148,2,birdincage2.png,box2,1,533,963.3333333,287
6.6.1,win,2022-07-30,20:44:16,1,1,1,level2A,4,freebird2,297,149,7,birdincage2.png,box7,1,482,963.3333333,288
6.6.1,win,2022-07-30,20:44:16,1,1,1,level2A,4,freebird2,299,150,2,birdincage2.png,box2,1,720,963.3333333,289
6.6.1,win,2022-07-30,20:44:16,1,1,1,level2A,4,freebird2,301,151,1,birdincage2.png,box1,0,475,963.3333333,289
6.6.1,win,2022-07-30,20:44:16,1,1,1,level2A,4,freebird2,303,152,7,birdincage2.png,box7,1,697,963.3333333,290
6.6.1,win,2022-07-30,20:44:16,1,1,1,level2A,4,freebird2,305,153,2,birdincage2.png,box2,1,587,963.3333333,291
6.6.1,win,2022-07-30,20:44:16,1,1,1,level2A,4,freebird2,307,154,7,birdincage2.png,box7,1,508,963.3333333,292
6.6.1,win,2022-07-30,20:44:16,1,1,1,level2A,4,freebird2,309,155,6,birdincage2.png,box6,1,539,963.3333333,293
6.6.1,win,2022-07-30,20:44:16,1,1,1,level2A,4,freebird2,311,156,2,birdincage2.png,box2,1,695,963.3333333,294
6.6.1,win,2022-07-30,20:44:16,1,1,1,level2A,4,freebird2,313,157,7,birdincage2.png,box7,1,727,963.3333333,295
6.6.1,win,2022-07-30,20:44:16,1,1,1,level2A,4,freebird2,315,158,5,birdincage2.png,box5,1,520,963.3333333,296
6.6.1,win,2022-07-30,20:44:16,1,1,1,level2A,4,freebird2,317,159,7,birdincage2.png,box7,1,633,963.3333333,297
6.6.1,win,2022-07-30,20:44:16,1,1,1,level2A,4,freebird2,319,160,9,birdincage2.png,box9,1,960,963.3333333,298
6.6.1,win,2022-07-30,20:44:16,1,1,1,level2A,4,freebird2,321,161,4,birdincage2.png,box4,1,443,963.3333333,299
6.6.1,win,2022-07-30,20:44:16,1,1,1,level2A,4,freebird2,323,162,9,birdincage2.png,box9,1,389,963.3333333,300
6.6.1,win,2022-07-30,20:44:16,1,1,1,level2A,4,freebird2,325,163,1,birdincage2.png,box1,0,433,963.3333333,300
6.6.1,win,2022-07-30,20:44:16,1,1,1,level2A,4,freebird2,327,164,9,birdincage2.png,box9,1,389,963.3333333,301
6.6.1,win,2022-07-30,20:44:16,1,1,1,level2A,4,freebird2,329,165,5,birdincage2.png,box5,1,581,963.3333333,302
6.6.1,win,2022-07-30,20:44:16,1,1,1,level2A,4,freebird2,331,166,2,birdincage2.png,box2,1,732,963.3333333,303
6.6.1,win,2022-07-30,20:44:16,1,1,1,level2A,4,freebird2,333,167,6,birdincage2.png,box6,1,529,963.3333333,304
6.6.1,win,2022-07-30,20:44:16,1,1,1,level2A,4,freebird2,335,168,1,birdincage2.png,box1,0,589,963.3333333,304
6.6.1,win,2022-07-30,20:44:16,1,1,1,level2A,4,freebird2,337,169,10,birdincage2.png,box10,1,438,963.3333333,305
6.6.1,win,2022-07-30,20:44:16,1,1,1,level2A,4,freebird2,339,170,7,birdincage2.png,box7,1,710,963.3333333,306
6.6.1,win,2022-07-30,20:44:16,1,1,1,level2A,4,freebird2,341,171,4,birdincage2.png,box4,1,683,963.3333333,307
6.6.1,win,2022-07-30,20:44:16,1,1,1,level2A,4,freebird2,343,172,9,birdincage2.png,box9,1,391,963.3333333,308
6.6.1,win,2022-07-30,20:44:16,1,1,1,level2A,4,freebird2,345,173,4,birdincage2.png,box4,1,628,963.3333333,309
6.6.1,win,2022-07-30,20:44:16,1,1,1,level2A,4,freebird2,347,174,8,birdincage2.png,0,0,963,963.3333333,309
6.6.1,win,2022-07-30,20:44:16,1,1,1,level2A,4,freebird2,349,175,5,birdincage2.png,box5,1,524,963.3333333,310
6.6.1,win,2022-07-30,20:44:16,1,1,1,level2A,4,freebird2,351,176,7,birdincage2.png,box7,1,505,963.3333333,311
6.6.1,win,2022-07-30,20:44:16,1,1,1,level2A,4,freebird2,353,177,6,birdincage2.png,box6,1,503,963.3333333,312
6.6.1,win,2022-07-30,20:44:16,1,1,1,level2A,4,freebird2,355,178,8,birdincage2.png,box8,1,488,963.3333333,313
6.6.1,win,2022-07-30,20:44:16,1,1,1,level2A,4,freebird2,357,179,9,birdincage2.png,box9,1,453,963.3333333,314
6.6.1,win,2022-07-30,20:44:16,1,1,1,level2A,4,freebird2,359,180,3,birdincage2.png,box3,1,458,963.3333333,315
6.6.1,win,2022-07-30,20:44:16,1,1,1,level2A,4,freebird2,361,181,6,birdincage2.png,0,0,963,963.3333333,315
6.6.1,win,2022-07-30,20:44:16,1,1,1,level2A,4,freebird2,363,182,2,birdincage2.png,box2,1,658,963.3333333,316
6.6.1,win,2022-07-30,20:44:16,1,1,1,level2A,4,freebird2,365,183,5,birdincage2.png,box5,1,833,963.3333333,317
6.6.1,win,2022-07-30,20:44:16,1,1,1,level2A,4,freebird2,367,184,7,birdincage2.png,box7,1,474,963.3333333,318
6.6.1,win,2022-07-30,20:44:16,1,1,1,level2A,4,freebird2,369,185,10,birdincage2.png,box10,1,671,963.3333333,319
6.6.1,win,2022-07-30,20:44:16,1,1,1,level2A,4,freebird2,371,186,4,birdincage2.png,box4,1,644,963.3333333,320
6.6.1,win,2022-07-30,20:44:16,1,1,1,level2A,4,freebird2,373,187,8,birdincage2.png,box8,1,493,963.3333333,321
6.6.1,win,2022-07-30,20:44:16,1,1,1,level2A,4,freebird2,375,188,3,birdincage2.png,box3,1,525,963.3333333,322
6.6.1,win,2022-07-30,20:44:16,1,1,1,level2A,4,freebird2,377,189,7,birdincage2.png,box7,1,540,963.3333333,323
6.6.1,win,2022-07-30,20:44:16,1,1,1,level2A,4,freebird2,379,190,2,birdincage2.png,box2,1,616,963.3333333,324
6.6.1,win,2022-07-30,20:44:16,1,1,1,level2A,4,freebird2,381,191,4,birdincage2.png,box4,1,447,963.3333333,325
6.6.1,win,2022-07-30,20:44:16,1,1,1,level2A,4,freebird2,383,192,2,birdincage2.png,box2,1,622,963.3333333,326
6.6.1,win,2022-07-30,20:44:16,1,1,1,level2A,4,freebird2,385,193,4,birdincage2.png,box4,1,647,963.3333333,327
6.6.1,win,2022-07-30,20:44:16,1,1,1,level2A,4,freebird2,387,194,8,birdincage2.png,box8,1,720,963.3333333,328
6.6.1,win,2022-07-30,20:44:16,1,1,1,level2A,4,freebird2,389,195,2,birdincage2.png,box2,1,921,963.3333333,329
6.6.1,win,2022-07-30,20:44:16,1,1,1,level2A,4,freebird2,391,196,5,birdincage2.png,box5,1,548,963.3333333,330
6.6.1,win,2022-07-30,20:44:16,1,1,1,level2A,4,freebird2,393,197,2,birdincage2.png,box2,1,609,963.3333333,331
6.6.1,win,2022-07-30,20:44:16,1,1,1,level2A,4,freebird2,395,198,10,birdincage2.png,box10,1,696,963.3333333,332
6.6.1,win,2022-07-30,20:44:16,1,1,1,level2A,4,freebird2,397,199,8,birdincage2.png,box8,1,446,963.3333333,333
6.6.1,win,2022-07-30,20:44:16,1,1,1,level2A,4,freebird2,399,200,4,birdincage2.png,box4,1,593,963.3333333,334
6.6.1,win,2022-07-30,20:44:16,1,1,1,level2A,4,freebird2,401,201,8,birdincage2.png,box8,1,578,963.3333333,335
6.6.1,win,2022-07-30,20:44:16,1,1,1,level2A,4,freebird2,403,202,2,birdincage2.png,box2,1,467,963.3333333,336
6.6.1,win,2022-07-30,20:44:16,1,1,1,level2A,4,freebird2,405,203,9,birdincage2.png,box9,1,791,963.3333333,337
6.6.1,win,2022-07-30,20:44:16,1,1,1,level2A,4,freebird2,407,204,4,birdincage2.png,box4,1,503,963.3333333,338
6.6.1,win,2022-07-30,20:44:16,1,1,1,level2A,4,freebird2,409,205,9,birdincage2.png,box9,1,424,963.3333333,339
6.6.1,win,2022-07-30,20:44:16,1,1,1,level2A,4,freebird2,411,206,5,birdincage2.png,box5,1,481,963.3333333,340
6.6.1,win,2022-07-30,20:44:16,1,1,1,level2A,4,freebird2,413,207,4,birdincage2.png,box4,1,523,963.3333333,341
6.6.1,win,2022-07-30,20:44:16,1,1,1,level2A,4,freebird2,415,208,5,birdincage2.png,box5,1,479,963.3333333,342
6.6.1,win,2022-07-30,20:44:16,1,1,1,level2A,4,freebird2,417,209,2,birdincage2.png,box2,1,668,963.3333333,343
6.6.1,win,2022-07-30,20:44:16,1,1,1,level2A,4,freebird2,419,210,7,birdincage2.png,box7,1,446,963.3333333,344
6.6.1,win,2022-07-30,20:44:16,1,1,1,level2A,4,freebird2,421,211,2,birdincage2.png,box2,1,708,963.3333333,345
6.6.1,win,2022-07-30,20:44:16,1,1,1,level2A,4,freebird2,423,212,4,birdincage2.png,box4,1,736,963.3333333,346
6.6.1,win,2022-07-30,20:44:16,1,1,1,level2A,4,freebird2,425,213,7,birdincage2.png,box7,1,587,963.3333333,347
6.6.1,win,2022-07-30,20:44:16,1,1,1,level2A,4,freebird2,427,214,9,birdincage2.png,box9,1,467,963.3333333,348
6.6.1,win,2022-07-30,20:44:16,1,1,1,level2A,4,freebird2,429,215,4,birdincage2.png,box4,1,396,963.3333333,349
6.6.1,win,2022-07-30,20:44:16,1,1,1,level2A,4,freebird2,431,216,8,birdincage2.png,box8,1,434,963.3333333,350
6.6.1,win,2022-07-30,20:44:16,1,1,1,level2A,4,freebird2,433,217,4,birdincage2.png,box4,1,484,963.3333333,351
6.6.1,win,2022-07-30,20:44:16,1,1,1,level2A,4,freebird2,435,218,6,birdincage2.png,box6,1,574,963.3333333,352
6.6.1,win,2022-07-30,20:44:16,1,1,1,level2A,4,freebird2,437,219,4,birdincage2.png,box4,1,584,963.3333333,353
6.6.1,win,2022-07-30,20:44:16,1,1,1,level2A,4,freebird2,439,220,1,birdincage2.png,box1,0,568,963.3333333,353
6.6.1,win,2022-07-30,20:44:16,1,1,1,level2A,4,freebird2,441,221,5,birdincage2.png,box5,1,624,963.3333333,354
6.6.1,win,2022-07-30,20:44:16,1,1,1,level2A,4,freebird2,443,222,4,birdincage2.png,box4,1,566,963.3333333,355
6.6.1,win,2022-07-30,20:44:16,1,1,1,level2A,4,freebird2,445,223,6,birdincage2.png,box6,1,498,963.3333333,356
6.6.1,win,2022-07-30,20:44:16,1,1,1,level2A,4,freebird2,447,224,4,birdincage2.png,box4,1,683,963.3333333,357
6.6.1,win,2022-07-30,20:44:16,1,1,1,level2A,4,freebird2,449,225,9,birdincage2.png,box9,1,612,963.3333333,358
6.6.1,win,2022-07-30,20:44:16,1,1,1,level2A,4,freebird2,451,226,7,birdincage2.png,box7,1,795,963.3333333,359
6.6.1,win,2022-07-30,20:44:16,1,1,1,level2A,4,freebird2,453,227,2,birdincage2.png,box2,1,639,963.3333333,360
6.6.1,win,2022-07-30,20:44:16,1,1,1,level2A,4,freebird2,455,228,7,birdincage2.png,box7,1,499,963.3333333,361
6.6.1,win,2022-07-30,20:44:16,1,1,1,level2A,4,freebird2,457,229,4,birdincage2.png,box4,1,613,963.3333333,362
6.6.1,win,2022-07-30,20:44:16,1,1,1,level2A,4,freebird2,459,230,1,birdincage2.png,box1,0,639,963.3333333,362
6.6.1,win,2022-07-30,20:44:16,1,1,1,level2A,4,freebird2,461,231,6,birdincage2.png,box6,1,428,963.3333333,363
6.6.1,win,2022-07-30,20:44:16,1,1,1,level2A,4,freebird2,463,232,10,birdincage2.png,box10,1,499,963.3333333,364
6.6.1,win,2022-07-30,20:44:16,1,1,1,level2A,4,freebird2,465,233,6,birdincage2.png,box6,1,387,963.3333333,365
6.6.1,win,2022-07-30,20:44:16,1,1,1,level2A,4,freebird2,467,234,1,birdincage2.png,box1,0,619,963.3333333,365
6.6.1,win,2022-07-30,20:44:16,1,1,1,level2A,4,freebird2,469,235,10,birdincage2.png,box10,1,606,963.3333333,366
6.6.1,win,2022-07-30,20:44:16,1,1,1,level2A,4,freebird2,471,236,9,birdincage2.png,box9,1,589,963.3333333,367
6.6.1,win,2022-07-30,20:44:16,1,1,1,level2A,4,freebird2,473,237,7,birdincage2.png,box7,1,495,963.3333333,368
6.6.1,win,2022-07-30,20:44:16,1,1,1,level2A,4,freebird2,475,238,4,birdincage2.png,box4,1,531,963.3333333,369
6.6.1,win,2022-07-30,20:44:16,1,1,1,level2A,4,freebird2,477,239,2,birdincage2.png,box2,1,581,963.3333333,370
6.6.1,win,2022-07-30,20:44:16,1,1,1,level2A,4,freebird2,479,240,6,birdincage2.png,box6,1,524,963.3333333,371
6.6.1,win,2022-07-30,20:44:16,1,1,1,level2A,4,freebird2,481,241,2,birdincage2.png,box2,1,542,963.3333333,372
6.6.1,win,2022-07-30,20:44:16,1,1,1,level2A,4,freebird2,483,242,5,birdincage2.png,box5,1,472,963.3333333,373
6.6.1,win,2022-07-30,20:44:16,1,1,1,level2A,4,freebird2,485,243,4,birdincage2.png,box4,1,511,963.3333333,374
6.6.1,win,2022-07-30,20:44:16,1,1,1,level2A,4,freebird2,487,244,8,birdincage2.png,box8,1,716,963.3333333,375
6.6.1,win,2022-07-30,20:44:16,1,1,1,level2A,4,freebird2,489,245,1,birdincage2.png,box1,0,493,963.3333333,375
6.6.1,win,2022-07-30,20:44:16,1,1,1,level2A,4,freebird2,491,246,5,birdincage2.png,box5,1,790,963.3333333,376
6.6.1,win,2022-07-30,20:44:16,1,1,1,level2A,4,freebird2,493,247,1,birdincage2.png,box1,0,745,963.3333333,376
6.6.1,win,2022-07-30,20:44:16,1,1,1,level2A,4,freebird2,495,248,9,birdincage2.png,box1,0,239,963.3333333,376
6.6.1,win,2022-07-30,20:44:16,1,1,1,level2A,4,freebird2,497,249,1,birdincage2.png,0,0,963,963.3333333,376
6.6.1,win,2022-07-30,20:44:16,1,1,1,level2A,4,freebird2,499,250,2,birdincage2.png,box1,0,30,963.3333333,376
6.6.1,win,2022-07-30,20:44:16,1,1,1,level2A,4,freebird2,501,251,4,birdincage2.png,box4,1,487,963.3333333,377
6.6.1,win,2022-07-30,20:44:16,1,1,1,level2A,4,freebird2,503,252,8,birdincage2.png,box8,1,512,963.3333333,378
6.6.1,win,2022-07-30,20:44:16,1,1,1,level2A,4,freebird2,505,253,6,birdincage2.png,box6,1,482,963.3333333,379
6.6.1,win,2022-07-30,20:44:16,1,1,1,level2A,4,freebird2,507,254,3,birdincage2.png,0,0,963,963.3333333,379
6.6.1,win,2022-07-30,20:44:16,1,1,1,level2A,4,freebird2,509,255,4,birdincage2.png,box4,1,439,963.3333333,380
6.6.1,win,2022-07-30,20:44:16,1,1,1,level2A,4,freebird2,511,256,9,birdincage2.png,box9,1,764,963.3333333,381
6.6.1,win,2022-07-30,20:44:16,1,1,1,level2A,4,freebird2,513,257,4,birdincage2.png,box4,1,465,963.3333333,382
6.6.1,win,2022-07-30,20:44:16,1,1,1,level2A,4,freebird2,515,258,1,birdincage2.png,box1,0,590,963.3333333,382
6.6.1,win,2022-07-30,20:44:16,1,1,1,level2A,4,freebird2,517,259,3,birdincage2.png,box3,1,761,963.3333333,383
6.6.1,win,2022-07-30,20:44:16,1,1,1,level2A,4,freebird2,519,260,6,birdincage2.png,box6,1,493,963.3333333,384
6.6.1,win,2022-07-30,20:44:16,1,1,1,level2A,4,freebird2,521,261,7,birdincage2.png,box7,1,521,963.3333333,385
6.6.1,win,2022-07-30,20:44:16,1,1,1,level2A,4,freebird2,523,262,8,birdincage2.png,box8,1,451,963.3333333,386
6.6.1,win,2022-07-30,20:44:16,1,1,1,level2A,4,freebird2,525,263,9,birdincage2.png,box9,1,366,963.3333333,387
6.6.1,win,2022-07-30,20:44:16,1,1,1,level2A,4,freebird2,527,264,1,birdincage2.png,box1,0,535,963.3333333,387
6.6.1,win,2022-07-30,20:44:16,1,1,1,level2A,4,freebird2,529,265,7,birdincage2.png,box7,1,704,963.3333333,388
6.6.1,win,2022-07-30,20:44:16,1,1,1,level2A,4,freebird2,531,266,6,birdincage2.png,box6,1,420,963.3333333,389
6.6.1,win,2022-07-30,20:44:16,1,1,1,level2A,4,freebird2,533,267,9,birdincage2.png,box9,1,567,963.3333333,390
6.6.1,win,2022-07-30,20:44:16,1,1,1,level2A,4,freebird2,535,268,5,birdincage2.png,box5,1,489,963.3333333,391
6.6.1,win,2022-07-30,20:44:16,1,1,1,level2A,4,freebird2,537,269,7,birdincage2.png,box7,1,495,963.3333333,392
6.6.1,win,2022-07-30,20:44:16,1,1,1,level2A,4,freebird2,539,270,3,birdincage2.png,box3,1,749,963.3333333,393
6.6.1,win,2022-07-30,20:44:16,1,1,1,level2A,4,freebird2,541,271,9,birdincage2.png,box9,1,666,963.3333333,394
6.6.1,win,2022-07-30,20:44:16,1,1,1,level2A,4,freebird2,543,272,10,birdincage2.png,box10,1,500,963.3333333,395
6.6.1,win,2022-07-30,20:44:16,1,1,1,level2A,4,freebird2,545,273,6,birdincage2.png,box6,1,450,963.3333333,396
6.6.1,win,2022-07-30,20:44:16,1,1,1,level2A,4,freebird2,547,274,3,birdincage2.png,box3,1,572,963.3333333,397
6.6.1,win,2022-07-30,20:44:16,1,1,1,level2A,4,freebird2,549,275,9,birdincage2.png,box9,1,569,963.3333333,398
6.6.1,win,2022-07-30,20:44:16,1,1,1,level2A,4,freebird2,551,276,4,birdincage2.png,box4,1,781,963.3333333,399
6.6.1,win,2022-07-30,20:44:16,1,1,1,level2A,4,freebird2,553,277,9,birdincage2.png,box9,1,506,963.3333333,400
6.6.1,win,2022-07-30,20:44:16,1,1,1,level2A,4,freebird2,555,278,6,birdincage2.png,box6,1,678,963.3333333,401
6.6.1,win,2022-07-30,20:44:16,1,1,1,level2A,4,freebird2,557,279,1,birdincage2.png,box1,0,804,963.3333333,401
6.6.1,win,2022-07-30,20:44:16,1,1,1,level2A,4,freebird2,559,280,8,birdincage2.png,box8,1,470,963.3333333,402
6.6.1,win,2022-07-30,20:44:16,1,1,1,level2A,4,freebird2,561,281,7,birdincage2.png,box7,1,854,963.3333333,403
6.6.1,win,2022-07-30,20:44:16,1,1,1,level2A,4,freebird2,563,282,9,birdincage2.png,box9,1,562,963.3333333,404
6.6.1,win,2022-07-30,20:44:16,1,1,1,level2A,4,freebird2,565,283,4,birdincage2.png,box4,1,612,963.3333333,405
6.6.1,win,2022-07-30,20:44:16,1,1,1,level2A,4,freebird2,567,284,10,birdincage2.png,box10,1,693,963.3333333,406
6.6.1,win,2022-07-30,20:44:16,1,1,1,level2A,4,freebird2,569,285,7,birdincage2.png,box7,1,521,963.3333333,407
6.6.1,win,2022-07-30,20:44:16,1,1,1,level2A,4,freebird2,571,286,8,birdincage2.png,0,0,963,963.3333333,407
6.6.1,win,2022-07-30,20:44:16,1,1,1,level2A,4,freebird2,573,287,5,birdincage2.png,box5,1,464,963.3333333,408
6.6.1,win,2022-07-30,20:44:16,1,1,1,level2A,4,freebird2,575,288,8,birdincage2.png,box8,1,455,963.3333333,409
6.6.1,win,2022-07-30,20:44:16,1,1,1,level2A,4,freebird2,577,289,10,birdincage2.png,box10,1,548,963.3333333,410
6.6.1,win,2022-07-30,20:44:16,1,1,1,level2A,4,freebird2,579,290,8,birdincage2.png,box8,1,719,963.3333333,411
6.6.1,win,2022-07-30,20:44:16,1,1,1,level2A,4,freebird2,581,291,6,birdincage2.png,box6,1,498,963.3333333,412
6.6.1,win,2022-07-30,20:44:16,1,1,1,level2A,4,freebird2,583,292,4,birdincage2.png,box4,1,668,963.3333333,413
6.6.1,win,2022-07-30,20:44:16,1,1,1,level2A,4,freebird2,585,293,10,birdincage2.png,box10,1,460,963.3333333,414
6.6.1,win,2022-07-30,20:44:16,1,1,1,level2A,4,freebird2,587,294,3,birdincage2.png,box3,1,663,963.3333333,415
6.6.1,win,2022-07-30,20:44:16,1,1,1,level2A,4,freebird2,589,295,6,birdincage2.png,box6,1,485,963.3333333,416
6.6.1,win,2022-07-30,20:44:16,1,1,1,level2A,4,freebird2,591,296,7,birdincage2.png,box7,1,465,963.3333333,417
6.6.1,win,2022-07-30,20:44:16,1,1,1,level2A,4,freebird2,593,297,8,birdincage2.png,box8,1,301,963.3333333,418
6.6.1,win,2022-07-30,20:44:16,1,1,1,level2A,4,freebird2,595,298,9,birdincage2.png,box9,1,365,963.3333333,419
6.6.1,win,2022-07-30,20:44:16,1,1,1,level2A,4,freebird2,597,299,10,birdincage2.png,box10,1,400,963.3333333,420
6.6.1,win,2022-07-30,20:44:16,1,1,1,level2A,4,freebird2,599,300,1,birdincage2.png,box1,0,406,963.3333333,420
6.6.1,win,2022-07-30,20:44:16,1,1,1,level2A,4,freebird2,601,301,3,birdincage2.png,box3,1,428,963.3333333,421
6.6.1,win,2022-07-30,20:44:16,1,1,1,level2A,4,freebird2,603,302,8,birdincage2.png,box8,1,483,963.3333333,422
6.6.1,win,2022-07-30,20:44:16,1,1,1,level2A,4,freebird2,605,303,3,birdincage2.png,box3,1,745,963.3333333,423
6.6.1,win,2022-07-30,20:44:16,1,1,1,level2A,4,freebird2,607,304,7,birdincage2.png,box7,1,418,963.3333333,424
6.6.1,win,2022-07-30,20:44:16,1,1,1,level2A,4,freebird2,609,305,3,birdincage2.png,box3,1,722,963.3333333,425
6.6.1,win,2022-07-30,20:44:16,1,1,1,level2A,4,freebird2,611,306,1,birdincage2.png,box1,0,588,963.3333333,425
6.6.1,win,2022-07-30,20:44:16,1,1,1,level2A,4,freebird2,613,307,4,birdincage2.png,box4,1,472,963.3333333,426
6.6.1,win,2022-07-30,20:44:16,1,1,1,level2A,4,freebird2,615,308,3,birdincage2.png,box3,1,536,963.3333333,427
6.6.1,win,2022-07-30,20:44:16,1,1,1,level2A,4,freebird2,617,309,1,birdincage2.png,box1,0,548,963.3333333,427
6.6.1,win,2022-07-30,20:44:16,1,1,1,level2A,4,freebird2,619,310,3,birdincage2.png,box3,1,695,963.3333333,428
6.6.1,win,2022-07-30,20:44:16,1,1,1,level2A,4,freebird2,621,311,10,birdincage2.png,box10,1,807,963.3333333,429
6.6.1,win,2022-07-30,20:44:16,1,1,1,level2A,4,freebird2,623,312,7,birdincage2.png,box7,1,719,963.3333333,430
6.6.1,win,2022-07-30,20:44:16,1,1,1,level2A,4,freebird2,625,313,4,birdincage2.png,box4,1,472,963.3333333,431
6.6.1,win,2022-07-30,20:44:16,1,1,1,level2A,4,freebird2,627,314,6,birdincage2.png,box6,1,495,963.3333333,432
6.6.1,win,2022-07-30,20:44:16,1,1,1,level2A,4,freebird2,629,315,3,birdincage2.png,box3,1,752,963.3333333,433
6.6.1,win,2022-07-30,20:44:16,1,1,1,level2A,4,freebird2,631,316,2,birdincage2.png,box2,1,677,963.3333333,434
6.6.1,win,2022-07-30,20:44:16,1,1,1,level2A,4,freebird2,633,317,4,birdincage2.png,box4,1,808,963.3333333,435
6.6.1,win,2022-07-30,20:44:16,1,1,1,level2A,4,freebird2,635,318,9,birdincage2.png,box9,1,624,963.3333333,436
6.6.1,win,2022-07-30,20:44:16,1,1,1,level2A,4,freebird2,637,319,5,birdincage2.png,box5,1,589,963.3333333,437
6.6.1,win,2022-07-30,20:44:16,1,1,1,level2A,4,freebird2,639,320,9,birdincage2.png,box9,1,487,963.3333333,438
6.6.1,win,2022-07-30,20:44:16,1,1,1,level2A,4,freebird2,641,321,6,birdincage2.png,box6,1,692,963.3333333,439
6.6.1,win,2022-07-30,20:44:16,1,1,1,level2A,4,freebird2,643,322,7,birdincage2.png,box7,1,740,963.3333333,440
6.6.1,win,2022-07-30,20:44:16,1,1,1,level2A,4,freebird2,645,323,2,birdincage2.png,box2,1,520,963.3333333,441
6.6.1,win,2022-07-30,20:44:16,1,1,1,level2A,4,freebird2,647,324,7,birdincage2.png,box7,1,616,963.3333333,442
6.6.1,win,2022-07-30,20:44:16,1,1,1,level2A,4,freebird2,649,325,10,birdincage2.png,box10,1,856,963.3333333,443
6.6.1,win,2022-07-30,20:44:16,1,1,1,level2A,4,freebird2,651,326,9,birdincage2.png,box9,1,612,963.3333333,444
6.6.1,win,2022-07-30,20:44:16,1,1,1,level2A,4,freebird2,653,327,8,birdincage2.png,box8,1,520,963.3333333,445
6.6.1,win,2022-07-30,20:44:16,1,1,1,level2A,4,freebird2,655,328,6,birdincage2.png,box6,1,607,963.3333333,446
6.6.1,win,2022-07-30,20:44:16,1,1,1,level2A,4,freebird2,657,329,5,birdincage2.png,box5,1,358,963.3333333,447
6.6.1,win,2022-07-30,20:44:16,1,1,1,level2A,4,freebird2,659,330,1,birdincage2.png,0,0,70,963.3333333,447
6.6.1,win,2022-07-30,20:44:16,1,1,1,level2B,5,freebird2,1,1,5,birdincage2.png,0,0,482,481.6666667,447
6.6.1,win,2022-07-30,20:44:16,1,1,1,level2B,5,freebird2,3,2,6,birdincage2.png,0,0,482,481.6666667,447
6.6.1,win,2022-07-30,20:44:16,1,1,1,level2B,5,freebird2,5,3,9,birdincage2.png,0,0,482,481.6666667,447
6.6.1,win,2022-07-30,20:44:16,1,1,1,level2B,5,freebird2,7,4,2,birdincage2.png,box9,0,48,481.6666667,447
6.6.1,win,2022-07-30,20:44:16,1,1,1,level2B,5,freebird2,9,5,3,birdincage2.png,0,0,482,481.6666667,447
6.6.1,win,2022-07-30,20:44:16,1,1,1,level2B,5,freebird2,11,6,10,birdincage2.png,0,0,482,481.6666667,447
6.6.1,win,2022-07-30,20:44:16,1,1,1,level2B,5,freebird2,13,7,7,birdincage2.png,0,0,482,481.6666667,447
6.6.1,win,2022-07-30,20:44:16,1,1,1,level2B,5,freebird2,15,8,10,birdincage2.png,0,0,482,481.6666667,447
6.6.1,win,2022-07-30,20:44:16,1,1,1,level2B,5,freebird2,17,9,1,birdincage2.png,0,0,482,481.6666667,447
6.6.1,win,2022-07-30,20:44:16,1,1,1,level2B,5,freebird2,19,10,10,birdincage2.png,0,0,482,481.6666667,447
6.6.1,win,2022-07-30,20:44:16,1,1,1,level2B,5,freebird2,21,11,5,birdincage2.png,box10,0,97,481.6666667,447
6.6.1,win,2022-07-30,20:44:16,1,1,1,level2B,5,freebird2,23,12,6,birdincage2.png,0,0,482,481.6666667,447
6.6.1,win,2022-07-30,20:44:16,1,1,1,level2B,5,freebird2,25,13,8,birdincage2.png,0,0,482,481.6666667,447
6.6.1,win,2022-07-30,20:44:16,1,1,1,level2B,5,freebird2,27,14,9,birdincage2.png,0,0,482,481.6666667,447
6.6.1,win,2022-07-30,20:44:16,1,1,1,level2B,5,freebird2,29,15,1,birdincage2.png,0,0,482,481.6666667,447
6.6.1,win,2022-07-30,20:44:16,1,1,1,level2B,5,freebird2,31,16,7,birdincage2.png,0,0,482,481.6666667,447
6.6.1,win,2022-07-30,20:44:16,1,1,1,level2B,5,freebird2,33,17,10,birdincage2.png,box10,1,434,481.6666667,448
6.6.1,win,2022-07-30,20:44:16,1,1,1,level2B,5,freebird2,35,18,9,birdincage2.png,0,0,482,481.6666667,448
6.6.1,win,2022-07-30,20:44:16,1,1,1,level2B,5,freebird2,37,19,5,birdincage2.png,0,0,482,481.6666667,448
6.6.1,win,2022-07-30,20:44:16,1,1,1,level2B,5,freebird2,39,20,3,birdincage2.png,0,0,482,481.6666667,448
6.6.1,win,2022-07-30,20:44:16,1,1,1,level2B,5,freebird2,41,21,2,birdincage2.png,box3,0,49,481.6666667,448
6.6.1,win,2022-07-30,20:44:16,1,1,1,level2B,5,freebird2,43,22,9,birdincage2.png,0,0,482,481.6666667,448
6.6.1,win,2022-07-30,20:44:16,1,1,1,level2B,5,freebird2,45,23,10,birdincage2.png,box10,1,441,481.6666667,449
6.6.1,win,2022-07-30,20:44:16,1,1,1,level2B,5,freebird2,47,24,7,birdincage2.png,0,0,482,481.6666667,449
6.6.1,win,2022-07-30,20:44:16,1,1,1,level2B,5,freebird2,49,25,3,birdincage2.png,0,0,482,481.6666667,449
6.6.1,win,2022-07-30,20:44:16,1,1,1,level2B,5,freebird2,51,26,6,birdincage2.png,0,0,482,481.6666667,449
6.6.1,win,2022-07-30,20:44:16,1,1,1,level2B,5,freebird2,53,27,7,birdincage2.png,box7,1,472,481.6666667,450
6.6.1,win,2022-07-30,20:44:16,1,1,1,level2B,5,freebird2,55,28,9,birdincage2.png,box9,1,361,481.6666667,451
6.6.1,win,2022-07-30,20:44:16,1,1,1,level2B,5,freebird2,57,29,3,birdincage2.png,box3,1,421,481.6666667,452
6.6.1,win,2022-07-30,20:44:16,1,1,1,level2B,5,freebird2,59,30,7,birdincage2.png,box7,1,429,481.6666667,453
6.6.1,win,2022-07-30,20:44:16,1,1,1,level2B,5,freebird2,61,31,10,birdincage2.png,box10,1,422,481.6666667,454
6.6.1,win,2022-07-30,20:44:16,1,1,1,level2B,5,freebird2,63,32,5,birdincage2.png,0,0,482,481.6666667,454
6.6.1,win,2022-07-30,20:44:16,1,1,1,level2B,5,freebird2,65,33,1,birdincage2.png,0,0,482,481.6666667,454
6.6.1,win,2022-07-30,20:44:16,1,1,1,level2B,5,freebird2,67,34,8,birdincage2.png,box1,0,23,481.6666667,454
6.6.1,win,2022-07-30,20:44:16,1,1,1,level2B,5,freebird2,69,35,6,birdincage2.png,0,0,482,481.6666667,454
6.6.1,win,2022-07-30,20:44:16,1,1,1,level2B,5,freebird2,71,36,5,birdincage2.png,box6,0,57,481.6666667,454
6.6.1,win,2022-07-30,20:44:16,1,1,1,level2B,5,freebird2,73,37,8,birdincage2.png,0,0,482,481.6666667,454
6.6.1,win,2022-07-30,20:44:16,1,1,1,level2B,5,freebird2,75,38,3,birdincage2.png,box8,0,22,481.6666667,454
6.6.1,win,2022-07-30,20:44:16,1,1,1,level2B,5,freebird2,77,39,4,birdincage2.png,box4,1,452,481.6666667,455
6.6.1,win,2022-07-30,20:44:16,1,1,1,level2B,5,freebird2,79,40,3,birdincage2.png,0,0,482,481.6666667,455
6.6.1,win,2022-07-30,20:44:16,1,1,1,level2B,5,freebird2,81,41,10,birdincage2.png,0,0,482,481.6666667,455
6.6.1,win,2022-07-30,20:44:16,1,1,1,level2B,5,freebird2,83,42,2,birdincage2.png,0,0,482,481.6666667,455
6.6.1,win,2022-07-30,20:44:16,1,1,1,level2B,5,freebird2,85,43,1,birdincage2.png,0,0,482,481.6666667,455
6.6.1,win,2022-07-30,20:44:16,1,1,1,level2B,5,freebird2,87,44,7,birdincage2.png,box7,1,456,481.6666667,456
6.6.1,win,2022-07-30,20:44:16,1,1,1,level2B,5,freebird2,89,45,4,birdincage2.png,0,0,482,481.6666667,456
6.6.1,win,2022-07-30,20:44:16,1,1,1,level2B,5,freebird2,91,46,10,birdincage2.png,box4,0,246,481.6666667,456
6.6.1,win,2022-07-30,20:44:16,1,1,1,level2B,5,freebird2,93,47,3,birdincage2.png,0,0,482,481.6666667,456
6.6.1,win,2022-07-30,20:44:16,1,1,1,level2B,5,freebird2,95,48,1,birdincage2.png,0,0,482,481.6666667,456
6.6.1,win,2022-07-30,20:44:16,1,1,1,level2B,5,freebird2,97,49,3,birdincage2.png,box1,0,46,481.6666667,456
6.6.1,win,2022-07-30,20:44:16,1,1,1,level2B,5,freebird2,99,50,7,birdincage2.png,0,0,482,481.6666667,456
6.6.1,win,2022-07-30,20:44:16,1,1,1,level2B,5,freebird2,101,51,10,birdincage2.png,box7,0,38,481.6666667,456
6.6.1,win,2022-07-30,20:44:16,1,1,1,level2B,5,freebird2,103,52,7,birdincage2.png,0,0,482,481.6666667,456
6.6.1,win,2022-07-30,20:44:16,1,1,1,level2B,5,freebird2,105,53,9,birdincage2.png,box10,0,69,481.6666667,456
6.6.1,win,2022-07-30,20:44:16,1,1,1,level2B,5,freebird2,107,54,4,birdincage2.png,box7,0,258,481.6666667,456
6.6.1,win,2022-07-30,20:44:16,1,1,1,level2B,5,freebird2,109,55,1,birdincage2.png,0,0,482,481.6666667,456
6.6.1,win,2022-07-30,20:44:16,1,1,1,level2B,5,freebird2,111,56,6,birdincage2.png,box1,0,15,481.6666667,456
6.6.1,win,2022-07-30,20:44:16,1,1,1,level2B,5,freebird2,113,57,10,birdincage2.png,0,0,482,481.6666667,456
6.6.1,win,2022-07-30,20:44:16,1,1,1,level2B,5,freebird2,115,58,1,birdincage2.png,box10,0,26,481.6666667,456
6.6.1,win,2022-07-30,20:44:16,1,1,1,level2B,5,freebird2,117,59,9,birdincage2.png,0,0,482,481.6666667,456
6.6.1,win,2022-07-30,20:44:16,1,1,1,level2B,5,freebird2,119,60,5,birdincage2.png,0,0,482,481.6666667,456
6.6.1,win,2022-07-30,20:44:16,1,1,1,level2B,5,freebird2,121,61,8,birdincage2.png,0,0,482,481.6666667,456
6.6.1,win,2022-07-30,20:44:16,1,1,1,level2B,5,freebird2,123,62,2,birdincage2.png,0,0,482,481.6666667,456
6.6.1,win,2022-07-30,20:44:16,1,1,1,level2B,5,freebird2,125,63,7,birdincage2.png,box2,0,326,481.6666667,456
6.6.1,win,2022-07-30,20:44:16,1,1,1,level2B,5,freebird2,127,64,9,birdincage2.png,0,0,482,481.6666667,456
6.6.1,win,2022-07-30,20:44:16,1,1,1,level2B,5,freebird2,129,65,7,birdincage2.png,0,0,482,481.6666667,456
6.6.1,win,2022-07-30,20:44:16,1,1,1,level2B,5,freebird2,131,66,2,birdincage2.png,0,0,482,481.6666667,456
6.6.1,win,2022-07-30,20:44:16,1,1,1,level2B,5,freebird2,133,67,9,birdincage2.png,box2,0,63,481.6666667,456
6.6.1,win,2022-07-30,20:44:16,1,1,1,level2B,5,freebird2,135,68,6,birdincage2.png,0,0,482,481.6666667,456
6.6.1,win,2022-07-30,20:44:16,1,1,1,level2B,5,freebird2,137,69,5,birdincage2.png,0,0,482,481.6666667,456
6.6.1,win,2022-07-30,20:44:16,1,1,1,level2B,5,freebird2,139,70,1,birdincage2.png,box1,0,478,481.6666667,456
6.6.1,win,2022-07-30,20:44:16,1,1,1,level2B,5,freebird2,141,71,9,birdincage2.png,0,0,482,481.6666667,456
6.6.1,win,2022-07-30,20:44:16,1,1,1,level2B,5,freebird2,143,72,7,birdincage2.png,box7,1,432,481.6666667,457
6.6.1,win,2022-07-30,20:44:16,1,1,1,level2B,5,freebird2,145,73,6,birdincage2.png,box6,1,457,481.6666667,458
6.6.1,win,2022-07-30,20:44:16,1,1,1,level2B,5,freebird2,147,74,5,birdincage2.png,box5,1,440,481.6666667,459
6.6.1,win,2022-07-30,20:44:16,1,1,1,level2B,5,freebird2,149,75,1,birdincage2.png,0,0,482,481.6666667,459
6.6.1,win,2022-07-30,20:44:16,1,1,1,level2B,5,freebird2,151,76,10,birdincage2.png,box10,1,455,481.6666667,460
6.6.1,win,2022-07-30,20:44:16,1,1,1,level2B,5,freebird2,153,77,8,birdincage2.png,box8,1,397,481.6666667,461
6.6.1,win,2022-07-30,20:44:16,1,1,1,level2B,5,freebird2,155,78,7,birdincage2.png,0,0,482,481.6666667,461
6.6.1,win,2022-07-30,20:44:16,1,1,1,level2B,5,freebird2,157,79,8,birdincage2.png,box7,0,99,481.6666667,461
6.6.1,win,2022-07-30,20:44:16,1,1,1,level2B,5,freebird2,159,80,10,birdincage2.png,0,0,482,481.6666667,461
6.6.1,win,2022-07-30,20:44:16,1,1,1,level2B,5,freebird2,161,81,1,birdincage2.png,0,0,482,481.6666667,461
6.6.1,win,2022-07-30,20:44:16,1,1,1,level2B,5,freebird2,163,82,6,birdincage2.png,0,0,482,481.6666667,461
6.6.1,win,2022-07-30,20:44:16,1,1,1,level2B,5,freebird2,165,83,3,birdincage2.png,box6,0,236,481.6666667,461
6.6.1,win,2022-07-30,20:44:16,1,1,1,level2B,5,freebird2,167,84,6,birdincage2.png,0,0,482,481.6666667,461
6.6.1,win,2022-07-30,20:44:16,1,1,1,level2B,5,freebird2,169,85,2,birdincage2.png,0,0,482,481.6666667,461
6.6.1,win,2022-07-30,20:44:16,1,1,1,level2B,5,freebird2,171,86,8,birdincage2.png,0,0,482,481.6666667,461
6.6.1,win,2022-07-30,20:44:16,1,1,1,level2B,5,freebird2,173,87,3,birdincage2.png,box8,0,357,481.6666667,461
6.6.1,win,2022-07-30,20:44:16,1,1,1,level2B,5,freebird2,175,88,9,birdincage2.png,0,0,482,481.6666667,461
6.6.1,win,2022-07-30,20:44:16,1,1,1,level2B,5,freebird2,177,89,7,birdincage2.png,box7,1,462,481.6666667,462
6.6.1,win,2022-07-30,20:44:16,1,1,1,level2B,5,freebird2,179,90,9,birdincage2.png,box9,1,461,481.6666667,463
6.6.1,win,2022-07-30,20:44:16,1,1,1,level2B,5,freebird2,181,91,3,birdincage2.png,0,0,482,481.6666667,463
6.6.1,win,2022-07-30,20:44:16,1,1,1,level2B,5,freebird2,183,92,7,birdincage2.png,0,0,482,481.6666667,463
6.6.1,win,2022-07-30,20:44:16,1,1,1,level2B,5,freebird2,185,93,1,birdincage2.png,box7,0,183,481.6666667,463
6.6.1,win,2022-07-30,20:44:16,1,1,1,level2B,5,freebird2,187,94,10,birdincage2.png,box10,1,454,481.6666667,464
6.6.1,win,2022-07-30,20:44:16,1,1,1,level2B,5,freebird2,189,95,8,birdincage2.png,0,0,482,481.6666667,464
6.6.1,win,2022-07-30,20:44:16,1,1,1,level2B,5,freebird2,191,96,9,birdincage2.png,box8,0,292,481.6666667,464
6.6.1,win,2022-07-30,20:44:16,1,1,1,level2B,5,freebird2,193,97,7,birdincage2.png,0,0,482,481.6666667,464
6.6.1,win,2022-07-30,20:44:16,1,1,1,level2B,5,freebird2,195,98,8,birdincage2.png,box7,0,227,481.6666667,464
6.6.1,win,2022-07-30,20:44:16,1,1,1,level2B,5,freebird2,197,99,3,birdincage2.png,0,0,482,481.6666667,464
6.6.1,win,2022-07-30,20:44:16,1,1,1,level2B,5,freebird2,199,100,4,birdincage2.png,0,0,482,481.6666667,464
6.6.1,win,2022-07-30,20:44:16,1,1,1,level2B,5,freebird2,201,101,6,birdincage2.png,0,0,482,481.6666667,464
6.6.1,win,2022-07-30,20:44:16,1,1,1,level2B,5,freebird2,203,102,10,birdincage2.png,0,0,482,481.6666667,464
6.6.1,win,2022-07-30,20:44:16,1,1,1,level2B,5,freebird2,205,103,1,birdincage2.png,0,0,482,481.6666667,464
6.6.1,win,2022-07-30,20:44:16,1,1,1,level2B,5,freebird2,207,104,10,birdincage2.png,0,0,482,481.6666667,464
6.6.1,win,2022-07-30,20:44:16,1,1,1,level2B,5,freebird2,209,105,4,birdincage2.png,0,0,482,481.6666667,464
6.6.1,win,2022-07-30,20:44:16,1,1,1,level2B,5,freebird2,211,106,10,birdincage2.png,box4,0,80,481.6666667,464
6.6.1,win,2022-07-30,20:44:16,1,1,1,level2B,5,freebird2,213,107,7,birdincage2.png,0,0,482,481.6666667,464
6.6.1,win,2022-07-30,20:44:16,1,1,1,level2B,5,freebird2,215,108,3,birdincage2.png,0,0,482,481.6666667,464
6.6.1,win,2022-07-30,20:44:16,1,1,1,level2B,5,freebird2,217,109,4,birdincage2.png,0,0,482,481.6666667,464
6.6.1,win,2022-07-30,20:44:16,1,1,1,level2B,5,freebird2,219,110,2,birdincage2.png,box4,0,258,481.6666667,464
6.6.1,win,2022-07-30,20:44:16,1,1,1,level2B,5,freebird2,221,111,7,birdincage2.png,box2,0,214,481.6666667,464
6.6.1,win,2022-07-30,20:44:16,1,1,1,level2B,5,freebird2,223,112,6,birdincage2.png,box7,0,208,481.6666667,464
6.6.1,win,2022-07-30,20:44:16,1,1,1,level2B,5,freebird2,225,113,10,birdincage2.png,box6,0,189,481.6666667,464
6.6.1,win,2022-07-30,20:44:16,1,1,1,level2B,5,freebird2,227,114,1,birdincage2.png,0,0,482,481.6666667,464
6.6.1,win,2022-07-30,20:44:16,1,1,1,level2B,5,freebird2,229,115,3,birdincage2.png,0,0,351,481.6666667,464
6.6.1,win,2022-07-30,20:44:16,1,1,1,level3_instructions,6,,,115,3,,Ctrl+'Q',,,481.6666667,464
